,Time (us),AccelX (m/s^2),AccelY (m/s^2),AccelZ (m/s^2),GyroX (rad/s),GyroY (rad/s),GyroZ (rad/s),Temp (C)
1871968.000000,0.122754,-3.828174,8.335878,-8.689871,-5.675772,-0.319938,24.580000
1894968.000000,2.389690,-6.522255,6.249983,-7.929519,-4.245701,-0.495730,24.670000
1917968.000000,3.527265,-8.019892,5.159687,-6.211231,-2.946165,-0.690532,24.620000
1940968.000000,3.441157,-8.107933,4.953779,-3.677706,-1.894842,-0.805176,24.720000
1963968.000000,2.883123,-7.546463,4.829580,-1.057657,-0.993241,-0.722355,24.720000
1986968.000000,2.518184,-7.258892,4.554727,1.329802,0.110710,-0.470893,24.620000
2009968.000000,2.424471,-7.490544,4.772988,3.494247,1.602805,-0.213996,24.670000
2032968.000000,2.283088,-7.599773,5.938180,5.224892,3.138003,-0.078880,24.670000
2055968.000000,1.828319,-6.885272,7.472162,6.254216,4.198295,-0.039393,24.670000
2078968.000000,1.107382,-5.579336,8.579853,6.661466,4.713683,-0.009750,24.670000
2101968.000000,0.249199,-4.371161,9.513643,6.528691,4.891986,-0.007142,24.720000
2124968.000000,-0.833428,-3.145002,10.900192,5.545636,4.577295,-0.085468,24.620000
2147968.000000,-2.105119,-1.350776,11.886799,3.787167,3.551900,-0.135940,24.720000
2170968.000000,-3.064012,0.582915,10.680215,2.545532,2.518835,0.031766,24.720000
2193968.000000,-3.394802,1.656768,7.595838,3.158374,2.735734,0.381588,24.620000
2216968.000000,-3.645551,2.016163,5.668401,5.036488,4.239236,0.646133,24.580000
2239968.000000,-4.504567,2.800325,6.797752,6.152320,5.422416,0.695247,24.670000
2262968.000000,-5.663221,4.184011,8.919282,5.633881,5.020984,0.690303,24.580000
2285968.000000,-6.152069,4.968853,8.819865,4.564066,3.648424,0.762087,24.670000
2308968.000000,-5.750115,4.630515,6.444538,3.947417,2.614967,0.772650,24.620000
2331968.000000,-5.339930,4.421059,4.389727,3.320470,2.058503,0.590098,24.620000
2354968.000000,-5.602749,5.335476,4.109132,2.007160,1.220428,0.369920,24.720000
2377968.000000,-6.009814,6.220261,4.786013,0.442597,-0.048929,0.299651,24.720000
2400968.000000,-5.717312,5.555235,5.484219,-0.729440,-1.179020,0.268176,24.670000
2423968.000000,-4.961526,4.102435,6.326903,-1.920159,-1.992496,0.085816,24.770000
2446968.000000,-4.684507,3.778629,7.405423,-3.851289,-2.907264,-0.150347,24.670000
2469968.000000,-5.015845,4.517320,8.127080,-6.115358,-4.013269,-0.227786,24.580000
2492968.000000,-5.056021,4.298128,8.189506,-7.517559,-4.741039,-0.208240,24.720000
2515968.000000,-4.178223,2.154231,8.289229,-7.617416,-4.663699,-0.336198,24.720000
2538968.000000,-2.783404,-0.600279,9.251510,-7.111322,-4.131961,-0.650154,24.620000
2561968.000000,-1.627423,-2.341448,10.799021,-6.757292,-3.832509,-0.944934,24.620000
2584968.000000,-0.964801,-2.961940,11.702657,-6.569646,-3.971801,-1.067101,24.620000
2607968.000000,-0.586368,-3.265855,11.120509,-6.144710,-4.163433,-1.036273,24.620000
2630968.000000,-0.301674,-3.577439,9.348758,-5.264812,-3.967625,-0.885849,24.670000
2653968.000000,-0.031173,-3.772189,7.264063,-3.888279,-3.207297,-0.574324,24.670000
2676968.000000,0.365872,-4.125449,5.634797,-1.837248,-1.817907,-0.138332,24.720000
2699968.000000,0.951716,-5.082396,5.111702,0.934829,0.122957,0.194997,24.720000
2722968.000000,1.438555,-6.200513,6.158872,3.604884,2.012642,0.220358,24.720000
2745968.000000,1.390201,-6.283131,8.411901,4.657645,2.842540,0.058190,24.720000
2768968.000000,0.755924,-4.940719,10.397494,3.531301,2.223481,0.061496,24.670000
2791968.000000,-0.028391,-3.299208,10.612134,1.787279,1.132942,0.359013,24.770000
2814968.000000,-0.586009,-2.572369,9.169960,1.729086,1.088995,0.661236,24.670000
2837968.000000,-1.062012,-2.447881,7.924839,3.822785,2.501118,0.644559,24.670000
2860968.000000,-1.830881,-1.668968,8.495945,6.268479,4.253590,0.383998,24.620000
2883968.000000,-2.876522,0.091084,10.451229,7.177640,5.003752,0.220547,24.720000
2906968.000000,-3.775648,1.901055,11.862128,6.388614,4.489412,0.294177,24.620000
2929968.000000,-4.258684,3.047521,11.422134,5.028968,3.448859,0.431517,24.620000
2952968.000000,-4.466730,3.778484,9.623910,4.070736,2.654843,0.467533,24.720000
2975968.000000,-4.631127,4.430348,7.883083,3.637942,2.270938,0.450587,24.670000
2998968.000000,-4.783343,4.835440,6.853584,3.309647,1.994618,0.481475,24.670000
3021968.000000,-4.847572,4.887254,6.080154,2.791273,1.604916,0.525493,24.670000
3044968.000000,-4.806559,4.897904,5.283753,2.226637,1.205379,0.477160,24.670000
3067968.000000,-4.688774,5.110660,5.039286,1.755938,0.874391,0.318641,24.720000
3090968.000000,-4.535568,5.362680,5.675274,0.938499,0.307815,0.134411,24.620000
3113968.000000,-4.451638,5.399444,6.484133,-0.867663,-0.859460,0.012603,24.720000
3136968.000000,-4.530384,5.217759,6.787631,-3.395746,-2.410287,-0.017336,24.620000
3159968.000000,-4.643888,4.980096,6.914704,-5.295983,-3.591228,0.026101,24.770000
3182968.000000,-4.464133,4.673428,7.345867,-5.561157,-3.909158,0.115594,24.770000
3205968.000000,-3.750854,3.922742,7.823459,-4.805052,-3.593012,0.225295,24.670000
3228968.000000,-2.555303,2.370529,8.174535,-4.541301,-3.213456,0.279832,24.670000
3251968.000000,-1.264381,0.360438,8.921857,-5.321459,-3.151028,0.147783,24.810000
3274968.000000,-0.444743,-1.181324,10.035866,-6.205176,-3.417469,-0.199222,24.720000
3297968.000000,-0.323513,-1.845246,10.310640,-6.160633,-3.690839,-0.548842,24.720000
3320968.000000,-0.401107,-2.274041,9.212313,-5.360644,-3.588699,-0.628757,24.720000
3343968.000000,0.067714,-3.259617,8.139887,-4.675185,-3.109651,-0.444905,24.620000
3366968.000000,1.171685,-4.736428,8.502129,-4.356448,-2.648409,-0.286832,24.720000
3389968.000000,2.214012,-6.067044,9.534292,-3.942621,-2.464720,-0.341397,24.670000
3412968.000000,2.539042,-6.930927,9.398774,-3.276066,-2.382397,-0.439626,24.580000
3435968.000000,2.274636,-7.406715,7.802622,-2.760036,-2.102713,-0.288333,24.720000
3458968.000000,2.129302,-7.534968,6.182281,-2.495042,-1.554162,0.135827,24.620000
3481968.000000,2.513794,-7.427774,5.565596,-1.993769,-0.853481,0.539452,24.620000
3504968.000000,3.039823,-7.356276,5.513966,-1.065836,-0.173412,0.645496,24.620000
3527968.000000,3.050801,-7.126698,5.275376,-0.209198,0.325280,0.510591,24.770000
3550968.000000,2.494591,-6.224027,4.924094,0.354710,0.740293,0.475614,24.770000
3573968.000000,1.927084,-5.190296,5.030793,1.287808,1.537848,0.771772,24.670000
3596968.000000,1.726579,-5.461124,5.865143,3.014684,2.900865,1.205585,24.670000
3619968.000000,1.677151,-6.964779,7.137291,4.551162,4.046555,1.355009,24.620000
3642968.000000,1.355375,-7.547061,8.220579,4.536165,3.964684,1.113734,24.720000
3665968.000000,0.681716,-5.970523,8.731174,3.312901,2.881314,0.861374,24.620000
3688968.000000,-0.051160,-3.845980,9.018709,2.789813,2.112090,0.948792,24.810000
3711968.000000,-0.669155,-3.080492,9.700134,3.917057,2.306704,1.208067,24.720000
3734968.000000,-1.429763,-2.858198,10.602837,5.424027,2.719362,1.249462,24.580000
3757968.000000,-2.637056,-1.072329,10.774478,5.678001,2.490334,1.103570,24.670000
3780968.000000,-4.021567,2.098981,9.894200,4.796648,1.836534,1.177337,24.670000
3803968.000000,-4.769536,4.105099,9.117241,4.004402,1.474254,1.569752,24.670000
3826968.000000,-4.315446,3.509997,9.793102,3.572458,1.395278,1.832744,24.720000
3849968.000000,-2.972846,1.831755,11.559074,2.542931,0.891376,1.571393,24.720000
3872968.000000,-1.536889,1.195732,12.657912,0.454435,-0.296775,0.974492,24.720000
3895968.000000,-0.389652,1.450016,12.298495,-1.631799,-1.483144,0.504955,24.720000
3918968.000000,0.592057,0.901538,11.638415,-2.334779,-1.954162,0.259052,24.670000
3941968.000000,1.378190,-0.747130,11.882492,-1.701353,-1.944409,-0.082803,24.670000
3964968.000000,1.647920,-1.746743,12.414739,-1.106869,-2.216774,-0.730080,24.670000
3987968.000000,1.319784,-0.791420,11.866235,-1.523997,-2.881632,-1.459259,24.580000
4010968.000000,0.702032,0.997158,10.420358,-2.521491,-3.252015,-1.875345,24.720000
4033968.000000,0.141211,1.410455,9.625354,-3.143718,-2.941514,-1.855963,24.720000
4056968.000000,-0.131323,-0.015475,10.005215,-3.207162,-2.464179,-1.637986,24.720000
4079968.000000,-0.010696,-1.609903,10.387868,-3.242907,-2.416539,-1.501137,24.720000
4102968.000000,0.358746,-2.088965,9.868058,-3.465550,-2.591952,-1.474165,24.720000
4125968.000000,0.703870,-2.234527,9.009213,-3.448601,-2.375975,-1.424730,24.720000
4148968.000000,0.887761,-3.283528,8.685225,-2.874975,-1.695039,-1.343644,24.670000
4171968.000000,0.799042,-4.638063,8.856642,-2.028300,-1.076315,-1.330666,24.670000
4194968.000000,0.262767,-4.609468,8.894626,-1.235569,-0.826105,-1.298944,24.720000
4217968.000000,-0.557866,-3.114177,8.473205,-0.299429,-0.561391,-0.985916,24.620000
4240968.000000,-1.106731,-1.984510,7.925910,0.996571,0.225789,-0.383328,24.720000
4263968.000000,-1.203792,-2.336118,7.845513,2.182614,1.359139,0.137792,24.720000
4286968.000000,-1.337272,-3.196334,8.258835,2.624210,2.151831,0.327104,24.670000
4309968.000000,-1.826113,-3.303493,8.532853,2.511067,2.373554,0.392607,24.770000
4332968.000000,-2.354985,-2.793527,8.483637,2.462798,2.457281,0.604945,24.670000
4355968.000000,-2.642156,-2.380658,8.850612,2.355076,2.573935,0.856983,24.770000
4378968.000000,-2.823855,-2.141488,9.916146,1.611250,2.272636,0.909610,24.720000
4401968.000000,-2.926696,-1.878793,10.581988,0.568471,1.450205,0.830100,24.720000
4424968.000000,-2.702115,-1.728409,9.970660,0.373921,0.874606,0.867268,24.720000
4447968.000000,-2.238158,-1.722218,9.149356,1.411650,1.152390,1.061101,24.720000
4470968.000000,-2.076547,-1.438162,9.788100,2.838245,1.825261,1.271534,24.720000
4493968.000000,-2.404123,-0.637652,11.466993,3.855173,2.101874,1.470431,24.670000
4516968.000000,-2.675082,0.362526,11.945039,4.632798,2.008726,1.725552,24.670000
4539968.000000,-2.436485,1.456030,10.250592,5.697861,2.199984,1.974199,24.770000
4562968.000000,-2.049954,3.128783,7.893375,6.918633,2.875104,2.066463,24.670000
4585968.000000,-2.094329,5.395579,6.546593,7.420808,3.459031,1.987644,24.810000
4608968.000000,-2.432174,7.156635,6.085834,6.385470,3.344564,1.830220,24.810000
4631968.000000,-2.408416,7.492974,5.583348,3.881448,2.551567,1.598130,24.720000
4654968.000000,-1.803741,6.933316,4.879712,1.016631,1.600888,1.238064,24.620000
4677968.000000,-1.191982,6.566546,4.381677,-0.849686,0.995908,0.844227,24.770000
4700968.000000,-1.261439,6.530958,4.205025,-1.292450,0.873372,0.661784,24.670000
4723968.000000,-1.832318,6.274221,4.204259,-1.163718,1.031139,0.829770,24.770000
4746968.000000,-1.828695,5.719705,4.391192,-1.592439,1.260375,1.164502,24.580000
4769968.000000,-0.617158,5.174497,4.847361,-2.853511,1.574436,1.244813,24.720000
4792968.000000,0.932360,4.469916,5.489620,-4.410530,1.995427,0.765024,24.620000
4815968.000000,1.363660,3.226676,6.345607,-5.658247,2.279030,-0.157449,24.620000
4838968.000000,0.356555,1.815702,7.744388,-6.220123,2.123700,-1.038772,24.620000
4861968.000000,-1.049724,1.011558,9.585915,-5.935770,1.573206,-1.457133,24.720000
4884968.000000,-1.759208,0.630327,10.915072,-5.143599,0.975130,-1.479935,24.720000
4907968.000000,-1.748179,-0.404500,11.215564,-4.705931,0.558992,-1.599952,24.670000
4930968.000000,-1.787089,-2.363944,11.341713,-5.156346,0.196870,-2.149146,24.670000
4953968.000000,-2.114579,-4.198773,11.930522,-5.948436,-0.353569,-2.880422,24.720000
4976968.000000,-2.032119,-5.149223,12.164132,-6.023371,-0.996240,-3.292805,24.720000
4999968.000000,-1.260718,-5.690867,11.536601,-5.041745,-1.321345,-3.221438,24.620000
5022968.000000,-0.573076,-6.292334,11.034546,-3.707833,-1.293624,-2.863765,24.720000
5045968.000000,-0.105230,-6.430106,10.878901,-2.988006,-1.534102,-2.424609,24.480000
5068968.000000,1.304129,-5.813582,9.327549,-3.312579,-2.276560,-2.094547,24.670000
5091968.000000,3.502818,-5.853362,5.893558,-4.361280,-2.373501,-2.138873,24.580000
5114968.000000,3.980557,-8.440443,3.511913,-5.211989,-0.553811,-2.509195,24.670000
5137968.000000,1.727835,-12.888998,4.807001,-4.853392,2.259685,-2.597463,24.720000
5160968.000000,-0.440567,-15.661903,7.959187,-3.085322,3.473235,-1.946773,24.620000
5183968.000000,-0.029665,-14.453937,9.053367,-0.883078,2.166416,-0.979902,24.620000
5206968.000000,1.491731,-11.147230,7.268063,0.559491,0.273817,-0.463795,24.620000
5229968.000000,1.664161,-9.200909,5.206032,1.032306,-0.208402,-0.529311,24.720000
5252968.000000,0.764748,-9.482316,4.924839,1.180866,0.436812,-0.756503,24.670000
5275968.000000,0.349517,-10.161067,5.813371,1.453589,0.814209,-0.906620,24.670000
5298968.000000,0.508556,-9.690792,6.195327,1.705778,0.493517,-1.032521,24.670000
5321968.000000,0.437025,-8.483834,5.530161,1.732279,0.066959,-1.113046,24.670000
5344968.000000,0.112549,-7.765839,4.610843,1.675779,0.015550,-1.038338,24.620000
5367968.000000,-0.006766,-7.748403,4.242450,1.766487,0.270340,-0.841309,24.620000
5390968.000000,-0.012609,-7.649722,4.408678,1.991638,0.547409,-0.655374,24.620000
5413968.000000,-0.261660,-7.180818,4.716917,2.297780,0.717011,-0.507905,24.720000
5436968.000000,-0.653089,-6.877581,5.057109,2.882813,0.984694,-0.331564,24.670000
5459968.000000,-1.051542,-6.788864,5.600076,3.876228,1.739599,-0.128855,24.670000
5482968.000000,-2.006424,-6.121013,6.543051,4.887164,2.947599,0.026730,24.670000
5505968.000000,-4.011575,-4.697342,8.030760,5.318556,3.757371,0.122783,24.670000
5528967.000000,-6.107377,-3.419139,9.994131,5.001229,3.209021,0.190007,24.530000
5551968.000000,-6.494635,-2.625623,11.805012,4.222693,1.545163,0.203175,24.720000
5574968.000000,-5.086016,-1.510962,12.394836,3.438757,0.340071,0.180104,24.720000
5597968.000000,-4.123423,0.120749,11.349360,3.099457,0.805427,0.273448,24.620000
5620968.000000,-5.298216,1.213903,9.764407,3.202778,2.245597,0.526910,24.720000
5643968.000000,-7.606533,1.288873,9.065712,2.995488,2.820593,0.702590,24.620000
5666968.000000,-9.013357,1.219514,9.053319,1.886361,1.755854,0.645590,24.670000
5689968.000000,-8.804678,1.610484,8.343559,0.577757,0.252799,0.610554,24.770000
5712968.000000,-7.626057,1.956673,6.695155,0.311985,0.076161,0.876968,24.720000
5735968.000000,-6.566728,1.791880,5.503477,1.060960,1.505363,1.262644,24.620000
5758968.000000,-6.496202,1.324547,5.790742,1.538791,3.026919,1.382861,24.620000
5781968.000000,-7.257133,0.729124,6.871895,0.994911,3.146544,1.162354,24.720000
5804968.000000,-7.650477,-0.044693,7.428808,-0.062433,2.002857,0.749743,24.670000
5827968.000000,-6.957716,-0.616531,7.114021,-0.936411,0.763447,0.196291,24.670000
5850968.000000,-5.947644,-0.345013,6.573882,-1.545587,0.021658,-0.428818,24.670000
5873968.000000,-5.649873,0.574796,6.370088,-2.041541,-0.463961,-0.863116,24.670000
5896968.000000,-5.824315,1.015501,6.459910,-2.352415,-0.888165,-0.917707,24.620000
5919968.000000,-5.582921,0.349533,6.608213,-2.321486,-1.087727,-0.727701,24.620000
5942968.000000,-4.945659,-0.705146,6.835854,-1.995610,-0.978212,-0.538308,24.720000
5965968.000000,-4.661235,-1.183686,7.267992,-1.638110,-0.759811,-0.429513,24.720000
5988968.000000,-4.845694,-1.124028,7.758037,-1.465051,-0.669111,-0.352049,24.720000
6011968.000000,-4.924782,-1.096295,8.008267,-1.421910,-0.758027,-0.254429,24.580000
6034968.000000,-4.699953,-1.216485,8.041566,-1.346696,-0.959673,-0.121267,24.770000
6057968.000000,-4.427171,-1.362374,8.180389,-1.282322,-1.260346,0.006539,24.770000
6080968.000000,-4.004522,-1.678476,8.477576,-1.376299,-1.663327,0.074181,24.770000
6103968.000000,-3.050093,-2.127403,8.545546,-1.539029,-1.996298,0.132220,24.620000
6126968.000000,-1.755582,-2.247276,8.238876,-1.540109,-1.999824,0.309226,24.720000
6149968.000000,-0.828215,-2.097419,8.194250,-1.446789,-1.759682,0.577026,24.720000
6172968.000000,-0.397039,-2.614885,8.957085,-1.639765,-1.834661,0.658881,24.620000
6195968.000000,0.385988,-4.135589,9.623771,-2.271823,-2.614750,0.360473,24.670000
6218968.000000,2.178078,-5.493067,8.702253,-2.879896,-3.582687,-0.029485,24.670000
6241968.000000,4.236629,-5.695132,6.798170,-2.749768,-3.691768,0.024037,24.770000
6264968.000000,5.137666,-5.420829,6.479752,-1.783233,-2.747206,0.515495,24.670000
6287968.000000,4.727510,-5.514029,8.229132,-0.781441,-1.860800,0.780461,24.620000
6310968.000000,4.500949,-5.419733,8.996314,-0.418755,-1.861478,0.544042,24.720000
6333967.000000,5.630013,-4.889645,6.994678,-0.104380,-1.795986,0.521959,24.530000
6356967.000000,7.274222,-5.345953,5.233874,1.299888,-0.215034,1.264270,24.530000
6379968.000000,7.458113,-7.037156,6.981183,3.526792,2.324064,1.965201,24.620000
6402968.000000,5.358729,-7.024775,10.209017,4.681795,3.640770,1.446806,24.620000
6425968.000000,2.174519,-3.381114,10.831217,3.469175,2.938165,-0.050098,24.670000
6448968.000000,-0.229244,0.669036,9.417421,0.833595,1.705417,-1.189804,24.770000
6471968.000000,-0.983316,0.705125,9.599978,-1.267820,1.241671,-1.471596,24.720000
6494968.000000,-0.471179,-2.466494,11.306044,-2.101320,1.083755,-1.681256,24.720000
6517968.000000,0.387820,-4.324126,11.174171,-2.383432,0.550504,-2.368691,24.620000
6540968.000000,0.864539,-3.378273,8.787000,-2.755907,0.139991,-2.993689,24.720000
6563968.000000,0.898529,-2.453987,7.085239,-3.032416,0.484577,-2.940944,24.670000
6586968.000000,0.889732,-3.446767,7.199636,-2.822644,1.233074,-2.442739,24.670000
6609968.000000,0.775150,-4.411870,7.580323,-1.964147,1.838096,-1.887615,24.670000
6632968.000000,-0.175022,-3.067935,7.679695,-0.307871,2.490551,-0.927448,24.670000
6655968.000000,-2.195525,-0.666915,8.563376,2.098457,3.528853,0.910313,24.620000
6678968.000000,-4.346185,-0.185078,10.249964,4.544213,4.597749,3.110419,24.620000
6701968.000000,-5.629751,-1.854717,11.406730,6.071990,5.043574,4.512829,24.620000
6724968.000000,-6.203720,-3.045468,11.518295,6.399581,4.747588,4.648428,24.720000
6747968.000000,-6.787235,-2.405175,11.385704,5.880630,4.003357,3.999675,24.720000
6770968.000000,-7.389448,-1.490516,11.535056,4.661750,2.762626,2.948605,24.670000
6793968.000000,-7.544062,-1.688870,11.472232,2.510630,0.631236,1.220235,24.580000
6816968.000000,-7.489634,-1.934109,10.689610,-0.458304,-2.242758,-1.348992,24.670000
6839968.000000,-7.960107,-0.755302,9.517637,-3.378520,-4.808551,-4.019234,24.670000
6862968.000000,-8.706179,1.110164,8.558220,-5.228079,-6.020957,-5.624547,24.720000
6885968.000000,-8.296804,1.708604,7.760633,-5.681972,-5.833629,-5.705546,24.620000
6908968.000000,-5.837659,0.575085,6.604652,-5.084185,-4.920394,-4.717780,24.620000
6931968.000000,-2.300698,-1.054557,5.153864,-3.666838,-3.601490,-3.160500,24.810000
6954968.000000,0.197022,-2.339908,4.443672,-1.436304,-1.630469,-1.157736,24.670000
6977968.000000,0.228899,-3.602782,5.407429,0.963111,0.789913,0.909077,24.670000
7000968.000000,-1.839253,-4.906955,7.555621,2.245621,2.523869,2.213821,24.670000
7023968.000000,-4.390478,-5.366943,9.297824,2.139624,2.796434,2.550699,24.670000
7046968.000000,-6.193888,-4.451606,9.697629,2.195928,2.458223,2.874749,24.620000
7069967.000000,-7.428576,-2.842511,9.258270,3.760602,2.867852,3.946743,24.530000
7092968.000000,-8.875316,-1.321652,8.664309,5.786218,3.827425,5.017509,24.620000
7115968.000000,-10.456722,0.283621,7.668302,6.136379,3.954764,4.878140,24.720000
7138968.000000,-11.349262,2.327895,6.036891,4.622475,2.934239,3.752579,24.620000
7161968.000000,-11.305503,4.259216,4.575171,2.985323,1.850069,2.908754,24.620000
7184968.000000,-10.814241,5.156281,3.957715,2.119990,1.299338,2.704473,24.670000
7207968.000000,-10.110185,5.002034,3.553916,1.383043,0.838857,2.437395,24.670000
7230968.000000,-9.090167,4.693902,2.647548,0.634968,0.401186,1.970457,24.620000
7253968.000000,-7.946598,4.893395,1.565962,0.648195,0.556838,1.936431,24.720000
7276968.000000,-6.983667,5.367146,0.638584,1.091689,1.161917,2.236541,24.620000
7299968.000000,-6.287185,5.430239,-0.213180,0.326985,1.322175,1.842693,24.720000
7322968.000000,-6.166687,4.770473,-0.139799,-2.090104,0.895528,0.423126,24.670000
7345968.000000,-7.038288,3.822985,2.104805,-4.503637,0.617870,-1.040372,24.580000
7368968.000000,-8.373952,3.204120,5.638377,-5.418930,0.657665,-1.642471,24.670000
7391968.000000,-8.841016,2.664033,7.832974,-5.243959,0.350439,-1.701793,24.580000
7414968.000000,-7.909380,1.102277,7.715301,-5.216914,-0.592676,-2.184659,24.720000
7437968.000000,-6.377205,-1.945269,6.889248,-5.700166,-1.683907,-3.502277,24.720000
7460968.000000,-5.214289,-5.292296,6.971553,-6.038760,-2.421895,-5.076480,24.810000
7483968.000000,-4.753335,-7.082626,7.870448,-5.406780,-2.662261,-5.811825,24.620000
7506968.000000,-4.845525,-6.589478,8.500452,-3.500748,-2.367708,-4.967225,24.620000
7529968.000000,-5.026322,-4.773879,8.042211,-0.879910,-1.607301,-2.807290,24.580000
7552968.000000,-4.724340,-3.179353,6.671451,1.319244,-0.713933,-0.390873,24.670000
7575968.000000,-3.789501,-2.510331,5.399046,2.483752,0.016022,1.478118,24.670000
7598968.000000,-2.667498,-2.403517,4.978948,3.250989,0.768865,2.954164,24.770000
7621968.000000,-2.008932,-2.262621,5.313051,4.550388,1.938621,4.493855,24.720000
7644968.000000,-2.250254,-1.737504,6.033658,6.069649,3.294448,5.771033,24.720000
7667968.000000,-3.265316,-0.610554,6.812471,6.424223,3.917533,5.904763,24.620000
7690968.000000,-4.249997,0.889775,7.136970,4.792516,3.282309,4.658559,24.720000
7713968.000000,-4.385121,1.698528,6.894235,1.654062,1.917577,2.647591,24.670000
7736968.000000,-3.755776,0.765427,7.029219,-1.991441,0.597920,0.345578,24.670000
7759968.000000,-3.167889,-1.533278,8.455324,-5.354867,-0.621446,-2.309010,24.770000
7782968.000000,-2.968330,-3.464675,10.417255,-7.836391,-2.059422,-5.124644,24.670000
7805968.000000,-2.564403,-3.645706,10.981975,-8.983862,-3.479981,-7.142483,24.720000
7828968.000000,-1.353630,-2.421209,9.241671,-8.631505,-4.050598,-7.284796,24.720000
7851968.000000,0.273098,-1.422791,6.434089,-6.814696,-3.129219,-5.267234,24.620000
7874968.000000,1.218704,-1.916374,4.823862,-3.685102,-0.853315,-1.779450,24.720000
7897968.000000,0.774538,-3.727781,5.658657,0.146440,1.883307,1.895452,24.620000
7920968.000000,-0.949571,-5.491461,8.175680,3.383797,3.938302,4.418281,24.720000
7943968.000000,-3.566287,-5.476937,10.546132,4.946648,4.750353,5.241713,24.670000
7966968.000000,-6.705989,-2.637088,11.554426,5.384081,4.862023,5.294783,24.670000
7989968.000000,-9.482651,2.003678,11.181006,6.315978,5.210845,6.011495,24.720000
8012968.000000,-10.525407,5.158643,10.107821,7.589977,5.604854,7.021067,24.720000
8035968.000000,-9.601592,4.078871,9.274838,6.395568,4.571785,5.828300,24.720000
8058968.000000,-8.788917,0.047973,9.597875,0.976670,1.462768,0.965121,24.720000
8081968.000000,-10.463711,-2.487067,11.321497,-5.908017,-2.047938,-5.354688,24.770000
8104968.000000,-13.862493,-1.371918,13.360640,-9.397592,-3.706663,-9.098899,24.580000
8127968.000000,-15.422982,0.163057,13.962932,-7.806065,-3.252739,-8.546287,24.670000
8150968.000000,-13.328591,-2.264452,12.736273,-3.684179,-2.123681,-5.504327,24.580000
8173968.000000,-9.810700,-8.108371,11.243625,-0.163147,-1.391365,-2.751430,24.620000
8196968.000000,-7.846563,-12.649911,10.729570,1.933215,-1.123295,-1.372267,24.620000
8219968.000000,-7.561764,-13.160218,10.488157,3.366255,-1.133365,-0.744122,24.620000
8242968.000000,-7.287541,-11.506643,9.504252,4.576174,-1.345135,-0.163467,24.720000
8265968.000000,-6.424175,-10.562040,8.197180,5.347067,-1.637093,0.311489,24.620000
8288968.000000,-5.606160,-10.441533,7.319060,5.584147,-1.900492,0.375899,24.670000
8311968.000000,-5.064064,-9.273872,6.467791,5.511445,-2.162534,0.111006,24.580000
8334968.000000,-4.352768,-6.400147,5.008145,5.241758,-2.414843,-0.133429,24.670000
8357968.000000,-3.347063,-3.311497,3.470763,4.685545,-2.537793,-0.231967,24.580000
8380968.000000,-2.310712,-1.429795,2.607989,3.840181,-2.559096,-0.418834,24.720000
8403968.000000,-1.124996,-0.255557,1.671794,2.832085,-2.624792,-0.897156,24.620000
8426968.000000,0.310476,1.555173,-0.687804,1.673066,-2.526256,-1.446424,24.620000
8449968.000000,0.954955,3.915246,-3.737888,0.178555,-1.765475,-1.634956,24.720000
8472968.000000,-0.447882,4.964824,-4.631562,-1.767460,-0.435028,-1.459363,24.670000
8495968.000000,-3.043238,3.317822,-1.983860,-3.854752,0.505932,-1.462053,24.580000
8518968.000000,-4.367400,0.269859,1.922556,-5.357020,0.382600,-1.936385,24.670000
8541968.000000,-3.657469,-1.352309,3.837353,-5.667606,-0.193071,-2.288544,24.580000
8564968.000000,-2.637596,-0.881129,3.335254,-4.843610,-0.108939,-1.706425,24.620000
8587968.000000,-2.625416,-0.795076,2.532297,-3.557892,0.781947,-0.387601,24.620000
8610968.000000,-3.115785,-3.021605,3.076620,-2.611144,1.624157,0.479761,24.620000
8633968.000000,-3.475098,-5.948073,4.808104,-2.501198,1.722623,0.106914,24.720000
8656968.000000,-3.610109,-6.851210,6.531727,-3.070185,1.190762,-0.935653,24.620000
8679968.000000,-3.004595,-5.975884,7.065891,-3.317204,0.712716,-1.348298,24.620000
8702968.000000,-1.703913,-5.809244,6.347501,-2.064010,1.044726,-0.458825,24.670000
8725968.000000,-1.802051,-6.866835,5.984894,0.705629,2.377624,1.270079,24.670000
8748968.000000,-4.973473,-7.055705,7.570861,3.578754,3.958154,2.953765,24.620000
8771968.000000,-9.156262,-5.541961,10.398081,5.162322,4.762721,4.054077,24.720000
8794968.000000,-10.865486,-4.172682,12.398631,5.269644,4.495421,4.272357,24.620000
8817968.000000,-10.060192,-3.979778,12.951594,4.413040,3.412388,3.328380,24.620000
8840968.000000,-9.509219,-3.295230,12.808349,2.922210,1.654105,1.478329,24.670000
8863968.000000,-10.169270,-0.981015,12.045795,0.989039,-0.392943,-0.238056,24.580000
8886968.000000,-10.472317,1.037742,10.415803,-1.085518,-1.703924,-1.046462,24.670000
8909968.000000,-9.665313,0.357633,8.993778,-3.075380,-1.667838,-1.435036,24.580000
8932968.000000,-8.758026,-2.499438,9.213848,-4.807628,-1.095208,-2.406765,24.620000
8955968.000000,-8.177794,-4.858520,10.542078,-5.812097,-1.251468,-3.930424,24.620000
8978968.000000,-7.167868,-5.179676,10.936596,-5.501437,-2.174718,-4.771589,24.720000
9001968.000000,-5.860994,-4.662912,9.815139,-3.906218,-2.698315,-3.916305,24.620000
9024968.000000,-5.563317,-5.856269,9.081253,-1.841629,-2.054754,-1.789004,24.580000
9047968.000000,-6.360878,-9.687532,10.400771,-0.141383,-0.867063,0.120164,24.770000
9070968.000000,-6.638360,-13.867859,12.577009,1.039472,-0.321537,0.772293,24.670000
9093968.000000,-5.731899,-15.081000,13.013486,2.106582,-0.641558,0.593622,24.670000
9116968.000000,-5.019114,-12.813244,11.204019,3.427358,-0.861127,0.835420,24.670000
9139968.000000,-5.530073,-9.634863,9.142620,4.849538,-0.270972,1.989953,24.620000
9162968.000000,-6.237966,-7.605557,8.293386,5.755465,0.481947,3.244696,24.620000
9185968.000000,-5.696607,-6.257208,7.816252,5.750802,0.392139,3.682939,24.620000
9208968.000000,-4.137988,-4.503138,6.498870,5.197460,-0.306403,3.449650,24.620000
9231968.000000,-2.850146,-2.572119,4.952991,4.633206,-0.639980,3.164555,24.580000
9254968.000000,-2.176458,-1.300997,4.312975,3.747909,-0.633103,2.654566,24.580000
9277968.000000,-1.504979,-1.037195,3.950253,1.588902,-1.090964,1.094660,24.580000
9300968.000000,-1.031384,-1.767481,2.863660,-2.001164,-1.887556,-1.707468,24.670000
9323968.000000,-1.713181,-2.974738,2.303554,-5.584569,-2.154580,-4.743326,24.620000
9346968.000000,-3.094406,-3.221490,3.887520,-7.108746,-1.956918,-6.466471,24.620000
9369968.000000,-3.202023,-1.450719,5.987400,-5.696929,-1.987196,-5.843913,24.620000
9392968.000000,-1.474694,1.154855,5.609911,-2.425280,-1.884657,-3.130105,24.620000
9415968.000000,0.052797,2.178586,3.281735,0.667773,-0.711995,0.160668,24.720000
9438968.000000,-0.448903,1.006559,2.425718,2.316801,1.137800,2.403318,24.580000
9461968.000000,-2.134719,-0.566149,4.117235,2.772739,2.202800,3.174899,24.580000
9484968.000000,-2.953148,-0.872185,5.762688,2.926447,1.969262,3.166593,24.580000
9507968.000000,-2.432569,-0.107175,5.243180,2.978113,1.272965,2.888706,24.620000
9530968.000000,-1.760797,0.619553,3.687769,2.276745,0.817396,2.100595,24.620000
9553968.000000,-1.831067,0.573657,3.341069,0.361529,0.457844,0.614553,24.620000
9576967.000000,-2.513259,-0.496815,4.633282,-2.360138,-0.007796,-1.135886,24.530000
9599968.000000,-3.415248,-2.259270,6.526659,-5.029673,-0.368506,-2.638594,24.670000
9622968.000000,-3.982745,-3.681978,8.263069,-6.802371,-0.571838,-3.656905,24.580000
9645968.000000,-3.211251,-4.165616,9.273147,-6.819847,-0.857028,-3.759326,24.580000
9668968.000000,-0.965805,-4.492260,8.729626,-4.635499,-0.949660,-2.372414,24.580000
9691968.000000,0.678411,-5.552176,7.055804,-1.096766,-0.075365,0.242624,24.620000
9714967.000000,-0.463713,-6.977067,6.536854,1.927352,1.677880,2.748443,24.530000
9737968.000000,-3.376967,-8.101511,8.442015,3.175324,2.963802,3.860681,24.720000
9760968.000000,-5.068404,-8.906426,10.939014,2.905486,2.813368,3.311330,24.620000
9783968.000000,-4.954606,-9.027209,11.702004,2.059872,1.828746,1.701919,24.580000
9806968.000000,-5.210470,-7.648466,11.036672,1.156186,1.136413,-0.045993,24.580000
9829968.000000,-6.708256,-5.420131,10.674967,0.195528,0.937652,-1.184216,24.580000
9852968.000000,-7.652925,-4.521632,10.944072,-0.920842,0.722064,-1.650060,24.580000
9875968.000000,-6.813642,-5.673487,10.914231,-2.130148,0.297317,-2.001420,24.670000
9898968.000000,-5.440839,-6.871875,10.335203,-3.016911,-0.043748,-2.457345,24.620000
9921968.000000,-5.102802,-6.247233,9.755847,-2.869886,-0.044938,-2.308387,24.620000
9944967.000000,-5.669786,-4.626261,9.320782,-1.344425,0.325168,-0.793979,24.530000
9967968.000000,-6.329590,-4.110576,8.877011,0.888765,0.978730,1.637421,24.620000
9990968.000000,-7.085900,-5.287671,8.862256,2.527686,1.603501,3.472115,24.670000
10013968.000000,-8.310383,-6.853702,9.804026,2.792151,1.624611,3.581999,24.480000
10036968.000000,-9.595109,-7.308288,11.029958,1.984552,0.659731,2.248915,24.580000
10059968.000000,-9.942478,-6.365457,10.934535,0.860013,-0.925268,0.668989,24.670000
10082968.000000,-9.155374,-5.048663,8.950910,-0.271835,-2.118992,-0.374400,24.620000
10105968.000000,-8.328607,-4.717699,6.601848,-1.544932,-2.168969,-1.133158,24.620000
10128968.000000,-8.243069,-5.755236,5.765066,-2.774323,-1.407368,-2.153356,24.620000
10151967.000000,-7.934972,-7.113468,6.262384,-3.194796,-0.879141,-3.183953,24.530000
10174968.000000,-6.156870,-7.497482,6.309935,-2.252504,-1.068367,-3.254721,24.620000
10197968.000000,-3.733760,-6.947050,5.198314,-0.365523,-1.413567,-1.896828,24.670000
10220968.000000,-2.841192,-6.613888,4.132529,1.467893,-1.243394,0.151940,24.580000
10243968.000000,-4.120208,-7.001418,4.213119,2.639165,-0.672488,1.697191,24.580000
10266968.000000,-5.923551,-7.361664,4.940861,3.197161,-0.251582,2.228470,24.620000
10289968.000000,-6.444862,-7.013180,5.271055,3.382970,-0.167900,2.075403,24.620000
10312967.000000,-5.607519,-6.180404,5.083583,3.305270,-0.200142,1.711479,24.530000
10335968.000000,-4.720092,-5.105860,4.927374,2.991124,-0.213748,1.282932,24.620000
10358968.000000,-4.750184,-3.459734,5.017998,2.467563,-0.318257,0.812330,24.670000
10381968.000000,-5.145135,-1.331612,5.095874,1.807900,-0.588912,0.509737,24.580000
10404968.000000,-4.499418,0.209732,4.915585,1.191623,-0.872461,0.612427,24.670000
10427968.000000,-2.418962,0.420657,4.531860,0.813817,-0.909004,1.032176,24.580000
10450968.000000,-0.275577,0.003093,4.327762,0.667776,-0.576444,1.409936,24.620000
10473968.000000,0.317978,0.095854,4.887019,0.533014,-0.043202,1.502492,24.620000
10496968.000000,-0.378247,0.681946,6.441102,0.244958,0.256779,1.357493,24.720000
10519967.000000,-0.188434,0.824705,8.150303,-0.121642,-0.099768,1.147228,24.530000
10542968.000000,2.488935,0.158515,8.497957,-0.398888,-1.053352,0.976889,24.670000
10565968.000000,6.403528,-0.744770,7.121943,-0.547078,-1.869500,0.843743,24.670000
10588968.000000,8.416856,-1.338750,5.789093,-0.627255,-1.720568,0.684767,24.580000
10611968.000000,6.822469,-1.510019,6.590677,-0.646672,-0.597116,0.459363,24.580000
10634968.000000,3.018526,-1.181717,9.459340,-0.584234,0.592233,0.206204,24.620000
10657968.000000,-0.177870,-0.508971,12.332692,-0.515836,0.963679,-0.012083,24.620000
10680967.000000,-1.188832,-0.270222,13.464313,-0.542625,0.503612,-0.196924,24.530000
10703968.000000,-0.590014,-1.043331,12.844651,-0.609565,-0.114803,-0.374375,24.620000
10726967.000000,-0.003299,-2.227630,11.687569,-0.556049,-0.325889,-0.504804,24.530000
10749968.000000,-0.353573,-2.800325,11.128650,-0.357261,-0.123602,-0.535559,24.580000
10772968.000000,-1.123500,-2.684866,11.248220,-0.162244,0.166292,-0.509071,24.580000
10795968.000000,-1.317957,-2.498839,11.226156,-0.048356,0.388844,-0.497292,24.670000
10818968.000000,-0.896319,-2.397720,10.627089,0.081004,0.660268,-0.477574,24.580000
10841968.000000,-0.656762,-2.138976,10.003652,0.220014,0.925083,-0.431966,24.620000
10864968.000000,-0.847944,-1.977545,9.779891,0.106188,0.810541,-0.499830,24.620000
10887968.000000,-0.927615,-2.506597,9.591848,-0.362229,0.282813,-0.802915,24.620000
10910968.000000,-0.815902,-3.660910,9.401703,-0.763283,-0.012264,-1.173676,24.620000
10933967.000000,-1.226579,-4.597792,9.810716,-0.630686,0.390823,-1.334967,24.530000
10956968.000000,-2.538283,-4.566932,10.603651,-0.134588,1.056664,-1.313802,24.580000
10979968.000000,-4.254402,-3.651093,10.727694,0.183508,1.326141,-1.359913,24.670000
11002968.000000,-5.426729,-2.917382,10.093157,0.207890,1.132593,-1.454603,24.670000
11025968.000000,-5.109303,-3.541818,9.457369,0.283757,0.687228,-1.268516,24.620000
11048967.000000,-3.357610,-5.083095,8.708829,0.549439,0.079985,-0.723928,24.530000
11071968.000000,-2.021338,-5.529484,7.450642,0.735271,-0.414079,-0.249516,24.620000
11094967.000000,-2.936454,-4.106646,6.597485,0.656011,-0.391910,-0.239179,24.530000
11117968.000000,-5.380942,-2.511263,7.103294,0.481394,0.050848,-0.525107,24.580000
11140968.000000,-7.129574,-2.237890,8.087806,0.410015,0.398174,-0.653936,24.580000
11163968.000000,-7.494686,-2.657805,8.243724,0.394333,0.409450,-0.483532,24.580000
11186968.000000,-7.459185,-2.715909,7.855341,0.317426,0.184011,-0.259545,24.580000
11209968.000000,-7.560104,-2.507777,7.791121,0.216453,-0.211262,-0.217339,24.620000
11232967.000000,-7.452569,-2.403006,7.855002,0.209940,-0.652670,-0.295789,24.530000
11255967.000000,-7.084995,-2.250770,7.518990,0.329575,-0.804004,-0.250103,24.530000
11278968.000000,-6.886232,-2.007070,7.179582,0.494042,-0.502086,0.017283,24.620000
11301968.000000,-6.945505,-1.974819,7.508619,0.584778,-0.068026,0.319666,24.580000
11324968.000000,-6.921232,-2.097552,8.249340,0.535505,0.084500,0.442333,24.670000
11347968.000000,-6.732113,-1.923793,8.645077,0.392471,-0.041602,0.445576,24.580000
11370968.000000,-6.722249,-1.466573,8.700494,0.270516,-0.166172,0.560198,24.770000
11393967.000000,-7.025692,-1.303518,9.079618,0.224977,-0.204422,0.836906,24.530000
11416967.000000,-7.159248,-1.655917,9.794158,0.208330,-0.299016,1.089022,24.530000
11439967.000000,-6.554568,-2.068425,9.938856,0.170582,-0.454051,1.180203,24.530000
11462968.000000,-5.393927,-2.183316,9.094926,0.138265,-0.452361,1.188531,24.620000
11485967.000000,-4.525564,-2.223628,8.198633,0.149751,-0.200418,1.235971,24.530000
11508968.000000,-4.410105,-2.461745,8.318969,0.160766,0.075124,1.293306,24.580000
11531968.000000,-4.529722,-2.689466,9.082157,0.082694,0.096700,1.246058,24.580000
11554968.000000,-4.124197,-2.535926,9.178700,-0.091900,-0.123813,1.087394,24.580000
11577968.000000,-3.193534,-2.034966,8.275301,-0.264626,-0.327711,0.952047,24.580000
11600967.000000,-2.369160,-1.622278,7.488884,-0.347908,-0.336477,0.958404,24.530000
11623968.000000,-1.971722,-1.668890,7.726446,-0.354005,-0.223210,1.069378,24.620000
11646968.000000,-1.687812,-2.063059,8.454076,-0.347459,-0.154921,1.138999,24.620000
11669967.000000,-1.179331,-2.231550,8.680296,-0.361308,-0.191629,1.088044,24.530000
11692968.000000,-0.488766,-1.768053,8.378157,-0.394565,-0.308299,0.990200,24.620000
11715968.000000,0.299927,-1.053467,8.203272,-0.451731,-0.490549,0.949032,24.580000
11738968.000000,1.285856,-0.864829,8.395833,-0.534810,-0.694488,0.937870,24.580000
11761968.000000,2.379353,-1.321167,8.691078,-0.612796,-0.803758,0.841401,24.580000
11784968.000000,3.122598,-1.720541,9.000572,-0.649611,-0.752243,0.628946,24.720000
11807968.000000,3.213580,-1.561198,9.550879,-0.657922,-0.641609,0.391272,24.620000
11830967.000000,2.959192,-1.202918,10.337766,-0.675129,-0.619635,0.206060,24.530000
11853968.000000,2.853143,-1.214474,10.934692,-0.685678,-0.656153,0.058235,24.720000
11876968.000000,2.838953,-1.482803,11.109058,-0.626076,-0.569820,-0.080470,24.580000
11899968.000000,2.436870,-1.454551,11.243978,-0.486905,-0.313657,-0.178165,24.580000
11922968.000000,1.605685,-1.072190,11.740527,-0.349719,-0.094030,-0.210794,24.580000
11945968.000000,0.934005,-0.905008,12.365766,-0.272700,-0.113945,-0.238303,24.480000
11968968.000000,0.805858,-1.312976,12.709751,-0.195476,-0.333147,-0.333191,24.720000
11991968.000000,0.950435,-2.016087,12.897083,-0.046826,-0.611322,-0.487555,24.620000
12014968.000000,1.070723,-2.627179,13.208676,0.105190,-0.931390,-0.666597,24.620000
12037968.000000,1.265467,-3.065797,13.425245,0.154129,-1.275436,-0.871873,24.620000
12060968.000000,1.489958,-3.263927,13.319266,0.170826,-1.429658,-1.054393,24.580000
12083968.000000,1.336911,-3.081849,13.365779,0.326349,-1.208787,-1.070803,24.580000
12106968.000000,0.807793,-2.804888,14.058545,0.602775,-0.803568,-0.870085,24.580000
12129968.000000,0.562176,-3.079344,14.879894,0.800359,-0.605437,-0.640119,24.580000
12152968.000000,0.887459,-3.950695,14.890071,0.871437,-0.706546,-0.602678,24.620000
12175968.000000,1.134506,-4.581498,14.036333,1.010393,-0.848027,-0.722990,24.620000
12198967.000000,0.721348,-4.360891,12.947036,1.302751,-0.853909,-0.805555,24.530000
12221967.000000,0.032257,-3.620431,11.709032,1.512550,-0.822876,-0.825333,24.530000
12244968.000000,-0.261072,-2.775932,9.852156,1.417302,-0.832167,-0.921867,24.580000
12267968.000000,-0.205647,-1.576497,7.473287,1.183064,-0.732828,-1.060603,24.670000
12290968.000000,-0.283965,0.124451,5.439406,1.143021,-0.400089,-0.984962,24.580000
12313968.000000,-0.539158,1.602799,4.287259,1.290623,0.007203,-0.611229,24.580000
12336968.000000,-0.625662,2.074669,3.629893,1.281293,0.246709,-0.220911,24.580000
12359967.000000,-0.552816,1.794296,2.942321,0.942785,0.340201,-0.091781,24.530000
12382967.000000,-0.752914,1.621569,2.351215,0.503655,0.493193,-0.134204,24.530000
12405967.000000,-1.315675,1.786114,2.233318,0.218016,0.715568,-0.095391,24.530000
12428967.000000,-1.682076,1.772213,2.469721,0.011922,0.774598,0.031728,24.530000
12451967.000000,-1.430558,1.350901,2.625006,-0.306625,0.582649,0.061670,24.530000
12474968.000000,-0.981817,0.986601,2.697207,-0.668468,0.412904,0.003124,24.580000
12497968.000000,-1.016399,0.969442,3.226059,-0.842848,0.559939,0.092451,24.580000
12520968.000000,-1.421633,0.806609,4.552716,-0.841054,0.896098,0.390383,24.670000
12543967.000000,-1.432085,-0.019361,6.213624,-0.929959,0.992139,0.619779,24.530000
12566967.000000,-0.781645,-1.151523,7.362318,-1.212712,0.689571,0.550150,24.530000
12589968.000000,-0.111323,-1.770451,7.817098,-1.463645,0.313593,0.330188,24.620000
12612968.000000,-0.074350,-1.645753,8.268245,-1.484610,0.210035,0.255231,24.620000
12635968.000000,-0.516821,-1.328554,9.185579,-1.391005,0.319237,0.367457,24.580000
12658968.000000,-0.822253,-1.400332,10.082284,-1.388990,0.404416,0.480476,24.670000
12681968.000000,-0.737104,-1.845459,10.417861,-1.473785,0.452708,0.480323,24.580000
12704968.000000,-0.539744,-2.231769,10.664816,-1.531817,0.573904,0.418532,24.580000
12727968.000000,-0.566989,-2.375125,11.655772,-1.538823,0.718779,0.389379,24.620000
12750967.000000,-0.817220,-2.592912,13.254528,-1.445122,0.797277,0.454936,24.530000
12773968.000000,-1.001565,-3.143152,14.557229,-1.091233,0.879375,0.611063,24.620000
12796967.000000,-0.940345,-3.665217,15.149538,-0.502536,0.997761,0.733220,24.530000
12819968.000000,-0.835039,-3.606603,15.283181,-0.041879,0.971217,0.660857,24.580000
12842968.000000,-0.979813,-3.051487,15.037079,0.020340,0.698683,0.403128,24.670000
12865968.000000,-1.299909,-2.572846,14.237340,-0.131075,0.389106,0.141159,24.670000
12888968.000000,-1.467496,-2.369712,13.114147,-0.183889,0.245585,-0.010081,24.580000
12911968.000000,-1.403313,-2.162422,12.231818,-0.136471,0.179750,-0.102456,24.620000
12934967.000000,-1.367270,-1.862988,11.804400,-0.146680,0.062808,-0.194982,24.530000
12957968.000000,-1.581391,-1.748273,11.674247,-0.189433,-0.019060,-0.247536,24.620000
12980968.000000,-1.976948,-1.990641,11.812085,-0.146025,0.009786,-0.228705,24.620000
13003968.000000,-2.303877,-2.455998,12.246224,-0.064313,-0.015596,-0.211849,24.580000
13026968.000000,-2.367721,-2.907397,12.644446,-0.059100,-0.251173,-0.273499,24.480000
13049968.000000,-2.160181,-3.146208,12.564557,-0.059456,-0.542141,-0.353080,24.670000
13072968.000000,-1.810556,-3.121936,12.093614,0.068348,-0.634747,-0.329303,24.580000
13095968.000000,-1.437993,-3.088314,11.777105,0.209840,-0.582933,-0.232865,24.580000
13118967.000000,-1.068476,-3.415544,11.853956,0.125863,-0.664520,-0.242808,24.530000
13141968.000000,-0.666893,-4.063953,11.839478,-0.110548,-0.904760,-0.416514,24.620000
13164967.000000,-0.219850,-4.461596,11.025202,-0.101101,-0.942476,-0.552622,24.530000
13187968.000000,0.177371,-4.122268,9.383091,0.372393,-0.474377,-0.424548,24.620000
13210968.000000,0.317289,-3.266470,7.812969,1.008679,0.301869,-0.094887,24.620000
13233968.000000,0.054605,-2.600597,7.235277,1.248354,0.828384,0.098061,24.580000
13256968.000000,-0.487229,-2.493505,7.475598,0.865524,0.790611,-0.093078,24.670000
13279968.000000,-0.988984,-2.601062,7.472894,0.256032,0.475093,-0.514121,24.580000
13302967.000000,-1.270010,-2.380202,6.667590,0.007698,0.386391,-0.770068,24.530000
13325967.000000,-1.413379,-1.756756,5.573672,0.186987,0.593754,-0.691018,24.530000
13348968.000000,-1.481898,-1.137212,4.772738,0.308621,0.736148,-0.475079,24.620000
13371968.000000,-1.353515,-0.922206,4.174673,0.054611,0.640921,-0.347517,24.620000
13394968.000000,-1.031283,-1.182900,3.697991,-0.341636,0.544176,-0.306205,24.580000
13417968.000000,-0.852319,-1.704234,3.764428,-0.573921,0.639224,-0.297453,24.580000
13440968.000000,-1.139398,-2.143037,4.554808,-0.763738,0.815754,-0.414741,24.480000
13463968.000000,-1.868828,-2.203725,5.611551,-1.217802,0.936766,-0.739356,24.580000
13486968.000000,-2.802615,-1.903815,6.569703,-1.897792,0.986352,-1.107059,24.620000
13509968.000000,-3.610604,-1.721218,7.422725,-2.421108,0.894687,-1.221214,24.620000
13532967.000000,-3.841065,-2.286088,7.967173,-2.550925,0.603720,-0.984100,24.530000
13555968.000000,-3.289623,-3.772459,7.960682,-2.451018,0.324770,-0.606226,24.620000
13578968.000000,-2.495984,-5.634857,7.786258,-2.395706,0.392580,-0.392355,24.580000
13601968.000000,-2.381563,-7.053665,8.065718,-2.395646,0.858590,-0.468312,24.580000
13624968.000000,-3.272969,-7.665074,8.745262,-2.196286,1.414651,-0.646937,24.580000
13647968.000000,-4.652636,-7.810548,9.225313,-1.589951,1.636972,-0.533381,24.580000
13670967.000000,-5.839971,-8.016369,9.187577,-0.745988,1.259155,0.059909,24.530000
13693967.000000,-6.469426,-8.261808,8.831475,-0.200542,0.406824,0.758793,24.530000
13716967.000000,-6.370913,-8.039075,8.469449,-0.325818,-0.438398,0.976250,24.530000
13739968.000000,-5.524633,-7.336139,8.149451,-0.836517,-0.881808,0.688547,24.620000
13762968.000000,-4.227339,-7.053817,7.634655,-1.110056,-0.861393,0.453873,24.580000
13785968.000000,-3.046919,-7.775200,6.830319,-0.964808,-0.379761,0.523093,24.580000
13808968.000000,-2.562339,-8.602557,6.214039,-0.779066,0.478210,0.478489,24.580000
13831968.000000,-2.952290,-8.321303,6.406421,-0.852110,1.127178,0.050785,24.580000
13854968.000000,-3.551351,-7.416245,7.232343,-1.015118,0.893770,-0.320008,24.620000
13877967.000000,-3.243553,-7.487822,7.758083,-0.954724,0.114527,-0.251938,24.530000
13900968.000000,-1.891151,-8.677872,7.402501,-0.632853,0.001005,-0.182280,24.440000
13923967.000000,-0.852002,-9.321473,6.538249,-0.256913,1.133528,-0.661264,24.530000
13946967.000000,-1.321256,-8.515805,5.834851,-0.036648,2.784892,-1.321399,24.530000
13969968.000000,-2.826911,-7.419527,5.368995,-0.090813,3.935186,-1.375935,24.620000
13992968.000000,-4.240789,-7.349788,4.728410,-0.411872,4.326153,-0.882093,24.670000
14015968.000000,-5.341637,-7.991213,3.892451,-0.808301,4.275979,-0.604827,24.580000
14038968.000000,-6.281943,-8.273575,3.415273,-1.068918,4.028393,-0.647207,24.480000
14061968.000000,-6.572135,-7.973135,3.506430,-1.263687,3.702687,-0.133057,24.620000
14084967.000000,-5.913839,-7.690619,3.579938,-1.629720,3.516192,1.428786,24.530000
14107968.000000,-5.230290,-7.758163,2.994827,-2.103002,3.604679,3.202745,24.620000
14130968.000000,-5.608652,-7.697871,1.689362,-2.319693,3.807289,4.056420,24.620000
14153968.000000,-6.703282,-6.892286,0.071453,-2.177186,3.938646,4.074867,24.580000
14176968.000000,-7.341111,-5.624877,-1.310613,-1.994704,4.069010,4.217534,24.580000
14199968.000000,-7.415551,-4.794867,-2.311291,-1.994104,4.275579,4.645551,24.580000
14222968.000000,-7.889578,-4.529102,-3.574730,-2.033485,4.372844,4.492374,24.580000
14245968.000000,-8.980170,-4.140860,-5.645672,-1.984777,4.167963,3.510861,24.620000
14268968.000000,-9.663746,-3.521200,-7.670257,-1.943134,3.735418,2.705098,24.620000
14291967.000000,-9.132499,-3.075838,-8.199576,-1.938923,3.235040,2.792195,24.530000
14314967.000000,-7.763526,-2.331631,-7.379593,-1.883556,2.777782,3.293464,24.530000
14337968.000000,-6.492218,-0.578739,-6.803139,-1.866788,2.586510,3.748807,24.580000
14360968.000000,-5.779669,1.207054,-7.102773,-2.040726,2.833404,4.467409,24.480000
14383968.000000,-5.365613,1.419175,-7.424521,-2.205943,3.205043,5.440239,24.580000
14406968.000000,-4.808091,0.619349,-7.284841,-1.992501,3.139411,5.924897,24.580000
14429967.000000,-4.009344,0.845193,-7.210462,-1.426721,2.610117,5.791511,24.530000
14452968.000000,-3.240934,2.502934,-7.548360,-0.902482,2.118084,5.971738,24.620000
14475968.000000,-2.841080,4.239747,-8.039620,-0.666838,1.722915,6.938101,24.620000
14498967.000000,-2.709358,5.158586,-8.523679,-0.654919,0.738510,7.887774,24.530000
14521968.000000,-2.035074,5.139719,-9.104862,-0.682902,-1.126832,7.937015,24.580000
14544968.000000,-0.262571,4.210003,-9.704813,-0.574269,-2.907924,7.145154,24.670000
14567968.000000,1.477118,3.298496,-10.076670,-0.308275,-3.487851,6.070414,24.580000
14590968.000000,1.307288,3.740533,-10.208784,-0.166646,-3.241932,5.157770,24.670000
14613968.000000,-0.403360,4.667623,-10.306975,-0.451729,-3.551509,4.625368,24.620000
14636967.000000,-0.928286,3.586001,-10.369260,-1.017653,-4.758085,4.241288,24.530000
14659968.000000,0.751658,0.784557,-10.084202,-1.429578,-5.740803,3.347047,24.620000
14682967.000000,2.027845,-0.139179,-9.339896,-1.640567,-5.700631,1.651989,24.530000
14705967.000000,0.600815,2.533840,-8.642972,-2.150406,-5.234373,-0.302600,24.530000
14728967.000000,-1.979596,6.144145,-8.515979,-3.325471,-5.191559,-1.860946,24.530000
14751968.000000,-3.027389,7.529256,-8.406951,-4.819199,-5.426456,-3.023493,24.580000
14774968.000000,-2.950818,6.729651,-7.026218,-5.935223,-5.375778,-4.208883,24.580000
14797968.000000,-4.172422,5.865246,-4.185059,-6.410667,-5.187021,-5.556288,24.580000
14820968.000000,-7.125015,6.156937,-1.374663,-6.497816,-5.411043,-6.637959,24.620000
14843968.000000,-9.720048,6.813120,0.081670,-6.414062,-5.951456,-6.877978,24.620000
14866968.000000,-10.305751,6.151202,0.594163,-6.187763,-6.181302,-6.373020,24.620000
14889967.000000,-9.276887,3.579059,1.470788,-5.937448,-5.923096,-5.984798,24.530000
14912968.000000,-7.654055,0.325274,3.163979,-5.756172,-5.521888,-6.164618,24.580000
14935968.000000,-5.588166,-2.119085,4.677197,-5.405286,-4.944878,-6.172191,24.580000
14958968.000000,-3.214398,-3.685391,4.593242,-4.629966,-3.471477,-5.172580,24.480000
14981968.000000,-2.068734,-5.073351,2.998653,-3.663745,-0.628675,-3.603189,24.580000
15004968.000000,-3.743412,-6.149445,1.965778,-3.015336,2.753462,-2.646166,24.620000
15027967.000000,-6.940395,-6.216777,3.072229,-2.920200,4.856233,-2.723620,24.530000
15050967.000000,-8.095182,-5.549193,5.131078,-3.260325,4.506617,-3.126274,24.530000
15073967.000000,-5.932236,-5.536738,5.721344,-3.766591,2.384738,-2.821031,24.530000
15096968.000000,-3.353443,-7.208063,4.197187,-4.095280,0.474298,-1.388233,24.480000
15119968.000000,-3.582642,-10.071966,1.970041,-3.958647,0.305027,0.478308,24.580000
15142968.000000,-6.176983,-12.373765,0.496454,-3.390486,1.640952,1.552689,24.480000
15165968.000000,-8.124576,-12.490294,-0.010992,-2.788450,2.941843,1.581849,24.480000
15188967.000000,-7.657858,-10.450682,-0.249232,-2.573705,3.184416,1.696124,24.530000
15211967.000000,-5.789830,-8.027367,-0.950120,-2.799993,2.832458,2.804658,24.530000
15234967.000000,-4.691920,-6.893717,-2.299192,-3.137296,2.792572,4.296671,24.530000
15257968.000000,-5.441530,-6.854385,-3.852700,-3.256357,3.066830,4.989387,24.620000
15280968.000000,-7.255262,-6.503002,-4.972089,-3.154421,2.984960,4.778994,24.580000
15303968.000000,-8.545175,-5.413755,-5.377619,-3.010134,2.325212,4.670254,24.580000
15326968.000000,-8.592831,-4.554126,-5.270061,-2.791872,1.555238,5.438811,24.670000
15349968.000000,-8.027224,-4.323611,-5.105815,-2.228020,1.043122,6.815680,24.580000
15372968.000000,-7.697775,-3.611332,-5.362560,-1.237896,0.568417,7.988422,24.620000
15395967.000000,-7.602395,-1.579369,-6.205646,-0.176253,-0.212293,8.514176,24.530000
15418967.000000,-7.350763,0.851833,-7.159119,0.543562,-1.199773,8.560142,24.530000
15441967.000000,-7.213781,2.218505,-7.433189,0.919909,-2.059713,8.457649,24.530000
15464967.000000,-7.638578,2.241936,-6.933193,1.223240,-2.763515,8.253695,24.530000
15487968.000000,-7.784954,1.718917,-6.654842,1.496370,-3.555349,7.674031,24.620000
15510968.000000,-6.203947,1.637046,-7.486637,1.476077,-4.448537,6.454712,24.580000
15533968.000000,-3.390252,2.653522,-8.797619,0.992533,-5.099680,4.712990,24.580000
15556968.000000,-1.707179,4.525010,-9.089836,0.180531,-5.237631,2.869937,24.670000
15579968.000000,-2.182575,6.167521,-8.026487,-0.743097,-4.939255,1.173842,24.620000
15602967.000000,-3.405175,6.933579,-6.684650,-1.666160,-4.410479,-0.402031,24.530000
15625967.000000,-4.027033,7.188250,-5.694808,-2.479241,-3.806278,-1.765449,24.530000
15648967.000000,-4.319036,7.267048,-4.517082,-3.055524,-3.390874,-2.704472,24.530000
15671968.000000,-4.923691,6.994822,-2.900975,-3.481160,-3.467480,-3.356470,24.480000
15694968.000000,-5.783524,6.393199,-1.519252,-4.049641,-3.828714,-4.149704,24.670000
15717968.000000,-6.524500,5.499695,-0.435805,-4.796760,-3.734063,-5.240430,24.580000
15740968.000000,-6.890663,3.664770,1.494719,-5.287503,-3.047477,-6.489801,24.480000
15763968.000000,-7.004988,0.766790,4.461372,-5.190151,-2.891858,-7.793029,24.620000
15786968.000000,-7.549445,-1.346042,6.375667,-4.817593,-4.106283,-8.739455,24.620000
15809967.000000,-8.808679,-1.081373,5.549796,-4.644351,-5.492282,-8.275376,24.530000
15832967.000000,-9.547995,-0.394542,3.546384,-4.504692,-5.089070,-5.788263,24.530000
15855968.000000,-8.352133,-2.662543,3.203490,-3.885361,-2.956191,-2.481788,24.580000
15878968.000000,-5.979658,-7.207947,4.735311,-2.916403,-1.118544,-0.534908,24.480000
15901968.000000,-4.539339,-9.670759,5.936675,-2.334751,-0.877380,-0.637262,24.580000
15924968.000000,-4.465621,-8.490641,5.511686,-2.332237,-1.522649,-1.269295,24.580000
15947967.000000,-4.305217,-6.932440,4.228785,-2.183281,-1.619007,-0.746579,24.530000
15970967.000000,-3.415609,-7.379933,3.203884,-1.388146,-0.585205,0.854535,24.530000
15993968.000000,-2.903504,-8.058366,2.821708,-0.480888,1.008697,2.302327,24.620000
16016968.000000,-3.708464,-7.423966,3.365121,-0.116093,2.113459,2.964878,24.620000
16039968.000000,-5.226490,-7.102594,4.916054,-0.033972,2.019456,3.120785,24.670000
16062968.000000,-6.132802,-7.850353,6.227694,0.295551,0.810616,3.009212,24.480000
16085968.000000,-5.870031,-7.369946,5.810084,0.656904,-0.761177,2.591053,24.580000
16108968.000000,-5.175975,-5.021803,4.769827,0.619961,-1.946705,2.094600,24.580000
16131968.000000,-5.204697,-3.966780,5.857182,0.497777,-2.617345,1.880513,24.620000
16154967.000000,-6.074812,-5.770883,8.911246,0.843965,-3.084658,1.804962,24.530000
16177967.000000,-6.618217,-7.425879,10.557895,1.473875,-3.441914,1.451122,24.530000
16200968.000000,-5.804206,-6.382534,9.357644,1.806193,-3.441374,0.870360,24.620000
16223968.000000,-4.038136,-4.352645,7.750935,1.747782,-2.970116,0.430590,24.620000
16246968.000000,-2.764310,-3.693180,7.951216,1.561544,-2.302162,0.134089,24.620000
16269968.000000,-2.937561,-3.723358,9.228955,1.298693,-1.799418,-0.252992,24.580000
16292968.000000,-4.040675,-2.982209,10.201035,0.963056,-1.517969,-0.602245,24.580000
16315968.000000,-4.706414,-2.181206,10.948270,0.818999,-1.218975,-0.610796,24.580000
16338968.000000,-4.328276,-2.552341,11.813573,0.989974,-0.752900,-0.443707,24.620000
16361967.000000,-3.758260,-3.217516,12.208133,1.111679,-0.303126,-0.561754,24.530000
16384968.000000,-4.126150,-2.464258,11.700428,0.864930,-0.142374,-0.935114,24.620000
16407967.000000,-5.253068,-0.696373,11.019933,0.536496,-0.252662,-1.000453,24.530000
16430968.000000,-5.831386,-0.087662,11.088189,0.596393,-0.383900,-0.512841,24.580000
16453968.000000,-5.179526,-1.455053,11.743924,0.967562,-0.438321,0.037150,24.670000
16476968.000000,-4.116881,-3.163562,12.096015,1.161400,-0.541917,0.082439,24.580000
16499968.000000,-3.836269,-3.437977,11.812259,0.998438,-0.722357,-0.288264,24.670000
16522968.000000,-4.519220,-2.449627,11.496653,0.789907,-0.797298,-0.530243,24.620000
16545968.000000,-5.406545,-1.582365,11.760718,0.832208,-0.676364,-0.362711,24.620000
16568967.000000,-5.773562,-1.534249,12.344296,1.050278,-0.541388,-0.007295,24.530000
16591967.000000,-5.472331,-1.819253,12.443193,1.210992,-0.591751,0.213320,24.530000
16614968.000000,-4.757791,-1.750927,11.679200,1.264673,-0.760867,0.257247,24.580000
16637968.000000,-3.944284,-1.275278,10.438959,1.336307,-0.818002,0.288167,24.580000
16660968.000000,-3.266727,-0.787427,9.367021,1.478185,-0.687591,0.390804,24.670000
16683968.000000,-2.826651,-0.539974,8.720197,1.583783,-0.560719,0.495068,24.480000
16706967.000000,-2.475758,-0.437684,8.149154,1.552010,-0.660099,0.524606,24.530000
16729968.000000,-1.870326,-0.239403,7.073697,1.417867,-0.936109,0.497105,24.620000
16752967.000000,-0.887470,0.189849,5.404259,1.264406,-1.079808,0.464318,24.530000
16775967.000000,0.043047,0.769701,3.848972,1.095627,-0.868713,0.433561,24.530000
16798968.000000,0.325542,1.251150,3.234111,0.880920,-0.426818,0.388079,24.580000
16821968.000000,0.007680,1.374669,3.502944,0.657334,-0.086642,0.336062,24.580000
16844968.000000,-0.176775,1.105472,3.752814,0.480335,-0.038396,0.290686,24.580000
16867968.000000,0.158216,0.783469,3.389201,0.307096,-0.162550,0.232403,24.580000
16890968.000000,0.436232,0.863004,2.848984,0.043557,-0.185216,0.144882,24.620000
16913968.000000,0.006383,1.369232,2.954820,-0.288022,0.045533,0.069203,24.620000
16936967.000000,-0.850278,1.824328,3.910841,-0.538610,0.434522,0.064156,24.530000
16959968.000000,-1.397432,1.843256,5.203141,-0.632469,0.735331,0.118381,24.440000
16982968.000000,-1.464140,1.536670,6.211280,-0.686928,0.760281,0.156105,24.620000
17005968.000000,-1.410218,1.193124,6.709180,-0.861915,0.557527,0.130907,24.620000
17028968.000000,-1.471707,0.865909,6.985115,-1.152083,0.372369,0.064991,24.580000
17051968.000000,-1.621407,0.477119,7.560391,-1.415084,0.354232,-0.006222,24.580000
17074967.000000,-1.751024,0.091883,8.586421,-1.578707,0.354732,-0.079396,24.530000
17097968.000000,-1.658828,-0.174487,9.568150,-1.710852,0.156157,-0.158880,24.620000
17120967.000000,-1.229594,-0.373091,9.988295,-1.847962,-0.155540,-0.217077,24.530000
17143968.000000,-0.846866,-0.589313,10.092032,-1.876438,-0.271703,-0.199713,24.620000
17166968.000000,-1.048012,-0.777927,10.530689,-1.708111,-0.129740,-0.079333,24.620000
17189968.000000,-1.545933,-0.997819,11.268003,-1.477109,-0.024237,0.088965,24.580000
17212968.000000,-1.416076,-1.499097,11.570368,-1.385698,-0.146074,0.189935,24.580000
17235968.000000,-0.555843,-2.241964,11.205394,-1.417037,-0.293729,0.167393,24.580000
17258968.000000,0.027148,-2.755901,10.870732,-1.385458,-0.215205,0.103176,24.580000
17281967.000000,-0.242486,-2.876690,11.175845,-1.219255,0.010533,0.117433,24.530000
17304967.000000,-0.705179,-3.110396,11.860665,-1.008179,0.139195,0.201659,24.530000
17327967.000000,-0.636481,-3.795914,12.323543,-0.815304,0.123119,0.228042,24.530000
17350968.000000,-0.250651,-4.439266,12.379594,-0.620631,0.104322,0.129340,24.620000
17373968.000000,-0.056775,-4.404056,12.130940,-0.418880,0.174900,-0.010501,24.580000
17396968.000000,-0.049705,-3.790873,11.564287,-0.222072,0.322955,-0.065973,24.480000
17419968.000000,-0.064395,-3.117211,10.800986,-0.003963,0.507460,-0.006686,24.580000
17442968.000000,-0.291762,-2.552191,10.381017,0.227255,0.625326,0.096951,24.580000
17465967.000000,-0.900228,-2.012838,10.675174,0.351478,0.517600,0.155266,24.530000
17488967.000000,-1.536077,-1.682982,11.239687,0.266428,0.174129,0.125977,24.530000
17511967.000000,-1.664835,-1.856479,11.324602,0.067159,-0.161324,0.034861,24.530000
17534967.000000,-1.236045,-2.415288,10.851306,-0.024580,-0.235842,-0.051485,24.530000
17557968.000000,-0.712392,-2.909378,10.393663,0.086740,-0.065641,-0.091605,24.480000
17580968.000000,-0.534401,-3.088906,10.375925,0.275703,0.138032,-0.111660,24.480000
17603968.000000,-0.742401,-3.081159,10.784886,0.374523,0.243972,-0.166917,24.580000
17626968.000000,-1.081028,-3.095434,11.509545,0.384060,0.284208,-0.268577,24.580000
17649967.000000,-1.354139,-3.129548,12.432273,0.454441,0.309051,-0.369333,24.530000
17672967.000000,-1.602450,-3.009062,13.240415,0.673102,0.294717,-0.416565,24.530000
17695968.000000,-1.896788,-2.696516,13.595061,0.947138,0.220975,-0.403120,24.620000
17718967.000000,-2.098543,-2.452275,13.495893,1.140002,0.141731,-0.368179,24.530000
17741968.000000,-2.046524,-2.533010,13.192566,1.261094,0.113289,-0.361352,24.620000
17764968.000000,-1.894698,-2.773508,12.786377,1.425185,0.099892,-0.405319,24.620000
17787968.000000,-1.968710,-2.667621,12.194436,1.647794,0.017471,-0.477984,24.580000
17810968.000000,-2.279731,-1.944229,11.484424,1.800306,-0.145293,-0.524985,24.670000
17833968.000000,-2.444144,-0.961028,10.921188,1.804240,-0.309900,-0.503595,24.620000
17856968.000000,-2.163384,-0.373050,10.540597,1.770804,-0.407796,-0.420821,24.620000
17879967.000000,-1.592649,-0.402178,9.946884,1.854312,-0.445618,-0.326347,24.530000
17902968.000000,-1.144452,-0.630500,8.809519,1.993684,-0.477715,-0.293153,24.620000
17925967.000000,-1.121592,-0.554155,7.418299,1.915517,-0.552513,-0.409071,24.530000
17948968.000000,-1.673954,-0.052935,6.449447,1.470259,-0.664256,-0.701927,24.580000
17971968.000000,-2.846946,0.713252,6.208536,0.878317,-0.741097,-1.023671,24.580000
17994968.000000,-4.376174,1.456798,6.330416,0.489606,-0.727499,-1.123986,24.580000
18017968.000000,-5.648895,1.790125,6.260521,0.356090,-0.664505,-0.925695,24.580000
18040967.000000,-6.236236,1.581109,5.872323,0.252622,-0.607606,-0.610592,24.530000
18063967.000000,-6.334283,1.274279,5.520553,0.082353,-0.499014,-0.353677,24.530000
18086968.000000,-6.385512,1.397877,5.576186,-0.008770,-0.241038,-0.120490,24.620000
18109968.000000,-6.453516,1.830430,6.021525,0.055659,0.113910,0.175778,24.620000
18132968.000000,-6.299812,1.992660,6.492902,0.121910,0.376825,0.474615,24.670000
18155968.000000,-5.899631,1.649055,6.680335,0.043138,0.457461,0.659516,24.580000
18178968.000000,-5.483580,1.095084,6.654238,-0.128221,0.467255,0.734731,24.580000
18201968.000000,-5.108030,0.636421,6.703962,-0.277305,0.530705,0.783399,24.580000
18224967.000000,-4.535013,0.320952,6.868440,-0.390589,0.617059,0.833900,24.530000
18247967.000000,-3.592946,0.218148,6.880388,-0.508873,0.639749,0.878586,24.530000
18270967.000000,-2.386724,0.480593,6.680251,-0.667738,0.600163,0.947747,24.530000
18293968.000000,-1.079167,0.860666,6.663374,-0.927101,0.535559,1.049592,24.620000
18316968.000000,0.285837,0.633361,7.161099,-1.300856,0.432843,1.092318,24.670000
18339968.000000,1.632511,-0.466325,7.944937,-1.638479,0.294464,0.982617,24.580000
18362968.000000,2.756081,-1.589918,8.560082,-1.744873,0.196435,0.778861,24.580000
18385968.000000,3.538642,-1.763821,8.906877,-1.623366,0.183780,0.643133,24.480000
18408968.000000,4.080967,-1.246045,9.136051,-1.440031,0.197140,0.637104,24.440000
18431968.000000,4.454363,-1.034392,9.277744,-1.278822,0.188541,0.650142,24.620000
18454967.000000,4.527716,-1.257564,9.469901,-1.114548,0.189499,0.555638,24.530000
18477967.000000,4.277998,-1.164087,10.139581,-0.979611,0.173372,0.371894,24.530000
18500968.000000,4.031664,-0.685054,11.233411,-0.935222,0.034297,0.214933,24.620000
18523967.000000,3.986688,-0.725668,11.808736,-0.894793,-0.150797,0.130607,24.530000
18546968.000000,3.675485,-1.578916,11.389888,-0.698371,-0.065633,0.054390,24.480000
18569968.000000,2.482816,-2.285288,11.088084,-0.371754,0.412009,-0.058064,24.580000
18592967.000000,0.664657,-2.165007,12.112592,-0.109820,0.928918,-0.154811,24.530000
18615968.000000,-0.776216,-1.887584,13.789625,0.012183,1.072110,-0.194221,24.620000
18638968.000000,-1.326256,-2.248103,14.413058,0.120633,0.881828,-0.243713,24.720000
18661967.000000,-1.515456,-2.796395,13.541598,0.312333,0.692761,-0.383373,24.530000
18684968.000000,-2.086965,-2.569103,12.174970,0.515055,0.651845,-0.561351,24.580000
18707968.000000,-3.075332,-1.572087,11.091174,0.626424,0.667252,-0.639926,24.580000
18730968.000000,-3.934698,-0.676481,10.255922,0.652748,0.679124,-0.572060,24.580000
18753968.000000,-4.277389,-0.340945,9.627752,0.646285,0.696675,-0.456539,24.580000
18776968.000000,-4.219991,-0.194677,9.329180,0.604477,0.658650,-0.406493,24.580000
18799967.000000,-4.152904,0.133113,9.047836,0.504242,0.515300,-0.415987,24.530000
18822967.000000,-4.407226,0.388231,8.405034,0.385841,0.396199,-0.389621,24.530000
18845967.000000,-5.040610,0.125911,7.950708,0.338783,0.456275,-0.285254,24.530000
18868968.000000,-5.750093,-0.557356,8.615205,0.397070,0.584532,-0.187397,24.440000
18891968.000000,-6.129530,-1.018518,10.097554,0.476395,0.507761,-0.212771,24.580000
18914968.000000,-6.156291,-0.754884,11.040338,0.461789,0.191768,-0.355979,24.580000
18937968.000000,-6.213990,0.091051,10.971947,0.355028,-0.096421,-0.477996,24.480000
18960968.000000,-6.539034,0.968359,10.867573,0.255602,-0.186410,-0.465737,24.580000
18983967.000000,-6.920991,1.469462,11.499789,0.196657,-0.250720,-0.346607,24.530000
19006968.000000,-7.023953,1.491623,12.312595,0.134102,-0.514306,-0.204581,24.620000
19029968.000000,-6.735628,1.061998,12.418221,0.115605,-0.868655,-0.050816,24.620000
19052968.000000,-6.164404,0.306261,11.931237,0.271404,-1.003934,0.137484,24.620000
19075968.000000,-5.533821,-0.494774,11.649585,0.563891,-0.892671,0.293461,24.480000
19098968.000000,-5.096294,-1.074700,11.772894,0.747718,-0.868184,0.297211,24.580000
19121968.000000,-4.930611,-1.371232,11.618743,0.706531,-1.126887,0.153250,24.580000
19144968.000000,-4.788573,-1.424184,10.636281,0.636432,-1.421477,0.021385,24.580000
19167968.000000,-4.338069,-1.230478,9.191208,0.720358,-1.449424,0.012834,24.620000
19190967.000000,-3.602675,-0.846300,8.094527,0.808916,-1.312359,0.047395,24.530000
19213967.000000,-2.948835,-0.469674,7.622324,0.669044,-1.302937,-0.002279,24.530000
19236967.000000,-2.579813,-0.234114,7.352048,0.397415,-1.404421,-0.105194,24.530000
19259968.000000,-2.287409,-0.028995,6.905018,0.282745,-1.349804,-0.129001,24.620000
19282968.000000,-1.791991,0.291672,6.393961,0.342377,-1.107669,-0.052692,24.620000
19305968.000000,-1.095287,0.611728,5.961965,0.323025,-0.940595,0.013575,24.480000
19328968.000000,-0.427062,0.717094,5.391368,0.152665,-0.930683,0.016058,24.480000
19351967.000000,-0.054244,0.744343,4.595468,0.060322,-0.793249,0.040258,24.530000
19374967.000000,-0.132210,1.098864,4.062866,0.156830,-0.343615,0.174639,24.530000
19397967.000000,-0.481865,1.757570,4.228631,0.197087,0.126677,0.383680,24.530000
19420968.000000,-0.583386,2.079615,4.694775,-0.047287,0.236452,0.564068,24.620000
19443968.000000,-0.148220,1.684135,4.736894,-0.411685,0.107408,0.671730,24.580000
19466968.000000,0.409515,1.076761,4.452788,-0.597437,0.196386,0.746997,24.580000
19489968.000000,0.545418,0.833795,4.709770,-0.643522,0.591961,0.832535,24.480000
19512968.000000,0.465485,0.601008,5.917719,-0.825652,0.891728,0.896152,24.580000
19535968.000000,0.761998,-0.267831,7.526890,-1.162093,0.836723,0.856723,24.440000
19558968.000000,1.308408,-1.392853,8.880243,-1.354081,0.659777,0.703406,24.620000
19581967.000000,1.390443,-1.761398,9.924551,-1.242847,0.651102,0.550689,24.530000
19604967.000000,0.926316,-1.358712,10.869742,-1.030338,0.736739,0.505063,24.530000
19627967.000000,0.613334,-1.226488,11.705543,-0.952919,0.706088,0.506958,24.530000
19650968.000000,0.768046,-1.788457,12.289671,-0.972299,0.587565,0.409980,24.480000
19673968.000000,0.925297,-2.308568,12.553674,-0.918576,0.552159,0.199417,24.580000
19696968.000000,0.729836,-2.218298,12.548485,-0.764191,0.584220,0.007413,24.580000
19719968.000000,0.432374,-1.860255,12.491267,-0.611518,0.467995,-0.085697,24.580000
19742967.000000,0.333867,-1.676580,12.609423,-0.511964,0.109812,-0.135848,24.530000
19765967.000000,0.325364,-1.611782,12.798907,-0.414838,-0.255436,-0.206215,24.530000
19788968.000000,0.123341,-1.524377,12.743137,-0.253887,-0.289954,-0.272591,24.620000
19811967.000000,-0.374901,-1.460886,12.440191,-0.035061,0.028546,-0.297035,24.530000
19834968.000000,-1.023297,-1.390058,12.194611,0.144511,0.335731,-0.305253,24.580000
19857968.000000,-1.548912,-1.180239,12.036985,0.187354,0.287496,-0.335080,24.390000
19880968.000000,-1.751690,-0.887928,11.637826,0.132159,-0.045907,-0.362340,24.580000
19903968.000000,-1.656347,-0.712813,10.922391,0.132409,-0.291091,-0.331868,24.480000
19926967.000000,-1.444207,-0.700107,10.318551,0.250929,-0.238998,-0.240666,24.530000
19949967.000000,-1.224480,-0.754138,10.184151,0.365495,-0.055582,-0.155313,24.530000
19972967.000000,-0.971825,-0.840233,10.358213,0.352589,0.010377,-0.148491,24.530000
19995967.000000,-0.747549,-0.933347,10.528496,0.267720,-0.044476,-0.225980,24.530000
20018967.000000,-0.777147,-0.920884,10.698110,0.242083,-0.072159,-0.315145,24.530000
20041967.000000,-1.096476,-0.812588,10.963048,0.288473,-0.053852,-0.333727,24.530000
20064968.000000,-1.357593,-0.885314,11.134462,0.331626,-0.093518,-0.276344,24.580000
20087968.000000,-1.322559,-1.313273,10.972467,0.363039,-0.198905,-0.218861,24.580000
20110967.000000,-1.307617,-1.770064,10.560010,0.425438,-0.264655,-0.227941,24.530000
20133967.000000,-1.708319,-1.759943,10.085446,0.476380,-0.264068,-0.286145,24.530000
20156967.000000,-2.319925,-1.316529,9.512884,0.414786,-0.285015,-0.323242,24.530000
20179967.000000,-2.622529,-0.996449,8.830815,0.252162,-0.357686,-0.304191,24.530000
20202968.000000,-2.539018,-1.121713,8.334153,0.125849,-0.398905,-0.266197,24.580000
20225968.000000,-2.432904,-1.364217,8.254663,0.112784,-0.356005,-0.271212,24.670000
20248968.000000,-2.529250,-1.219592,8.352143,0.144923,-0.273048,-0.323499,24.580000
20271968.000000,-2.732640,-0.675751,8.237874,0.144203,-0.185463,-0.341880,24.480000
20294967.000000,-2.865671,-0.217677,7.902669,0.130793,-0.067854,-0.245964,24.530000
20317967.000000,-2.806868,-0.200261,7.609975,0.142831,0.078443,-0.070366,24.530000
20340967.000000,-2.519672,-0.406901,7.456452,0.139788,0.185448,0.064448,24.530000
20363967.000000,-2.110857,-0.389974,7.367401,0.059231,0.214323,0.108286,24.530000
20386967.000000,-1.758303,-0.120480,7.386825,-0.083624,0.225056,0.133634,24.530000
20409968.000000,-1.513719,0.009985,7.622582,-0.218816,0.300905,0.205382,24.670000
20432968.000000,-1.288626,-0.188009,7.986319,-0.311863,0.439871,0.287583,24.480000
20455968.000000,-1.061040,-0.462575,8.318874,-0.378403,0.558491,0.331786,24.580000
20478968.000000,-0.936572,-0.599201,8.683807,-0.434355,0.578350,0.372371,24.580000
20501968.000000,-0.925751,-0.760261,9.216396,-0.478482,0.485368,0.458213,24.620000
20524967.000000,-0.823509,-1.156973,9.790775,-0.508558,0.330784,0.547637,24.530000
20547968.000000,-0.461211,-1.658136,10.140088,-0.518089,0.198377,0.548391,24.440000
20570968.000000,0.010805,-1.903891,10.244947,-0.486579,0.152161,0.438312,24.620000
20593968.000000,0.247227,-1.653496,10.376154,-0.404979,0.185922,0.294016,24.580000
20616968.000000,0.127681,-0.985287,10.734030,-0.313385,0.223281,0.206698,24.580000
20639968.000000,-0.061546,-0.307753,11.199308,-0.277088,0.194559,0.197433,24.480000
20662968.000000,0.007574,-0.093074,11.544001,-0.295446,0.118306,0.217659,24.670000
20685968.000000,0.237595,-0.416757,11.741008,-0.274030,0.071819,0.220030,24.620000
20708967.000000,0.259215,-0.901678,11.871712,-0.145851,0.078081,0.208089,24.530000
20731968.000000,0.015004,-1.236341,11.879944,0.021040,0.075719,0.202525,24.620000
20754967.000000,-0.166752,-1.453380,11.646493,0.113592,0.016040,0.187279,24.530000
20777968.000000,-0.106924,-1.577336,11.184437,0.122858,-0.067295,0.134235,24.620000
20800968.000000,-0.003178,-1.457873,10.616799,0.110374,-0.113751,0.068073,24.580000
20823968.000000,-0.034716,-1.219917,10.102294,0.077740,-0.114416,0.046518,24.580000
20846968.000000,-0.095323,-1.413111,9.838609,-0.007412,-0.095228,0.064421,24.580000
20869967.000000,-0.100831,-2.265463,9.947471,-0.075477,-0.052379,0.037252,24.530000
20892968.000000,-0.285620,-3.109609,10.285137,0.013459,0.040592,-0.084850,24.620000
20915968.000000,-0.907774,-3.088915,10.512274,0.261995,0.163354,-0.240110,24.620000
20938968.000000,-1.791252,-2.256106,10.427440,0.477758,0.240293,-0.344913,24.620000
20961968.000000,-2.462933,-1.419016,10.148699,0.494852,0.219205,-0.410704,24.670000
20984968.000000,-2.723385,-1.029183,9.915140,0.367678,0.120745,-0.495590,24.670000
21007968.000000,-2.816413,-0.843817,9.798545,0.276067,0.002316,-0.575761,24.480000
21030968.000000,-2.991787,-0.641495,9.693660,0.304474,-0.084443,-0.566950,24.580000
21053968.000000,-3.167601,-0.590961,9.532505,0.377145,-0.101500,-0.476122,24.440000
21076967.000000,-3.197163,-0.756794,9.403451,0.375094,-0.052195,-0.424624,24.530000
21099968.000000,-3.230599,-0.811476,9.420996,0.274854,-0.014850,-0.474641,24.620000
21122967.000000,-3.480323,-0.534094,9.535747,0.169382,-0.084964,-0.525998,24.530000
21145968.000000,-3.768298,-0.213930,9.607033,0.148297,-0.261569,-0.464311,24.480000
21168968.000000,-3.696949,-0.244622,9.647845,0.174479,-0.449309,-0.338670,24.580000
21191968.000000,-3.210929,-0.583791,9.778377,0.133296,-0.580909,-0.288323,24.480000
21214968.000000,-2.634068,-0.927228,9.933627,0.011910,-0.658922,-0.337904,24.670000
21237968.000000,-2.200256,-1.174689,9.887104,-0.048629,-0.676401,-0.380424,24.580000
21260967.000000,-1.883617,-1.349829,9.583744,0.062234,-0.608808,-0.347413,24.530000
21283967.000000,-1.652053,-1.281987,9.192520,0.247339,-0.502499,-0.281977,24.530000
21306967.000000,-1.554533,-0.827750,8.818888,0.307150,-0.450881,-0.230945,24.530000
21329967.000000,-1.542986,-0.259040,8.420015,0.207634,-0.449610,-0.163919,24.530000
21352968.000000,-1.474526,0.052817,8.015358,0.131624,-0.382265,-0.032162,24.580000
21375968.000000,-1.308892,0.235235,7.694022,0.235089,-0.177678,0.167639,24.480000
21398968.000000,-1.111771,0.675874,7.405849,0.455187,0.114980,0.420880,24.580000
21421968.000000,-0.883277,1.233153,7.097672,0.607323,0.409688,0.710120,24.480000
21444967.000000,-0.544556,1.268130,7.024224,0.573144,0.624799,0.954939,24.530000
21467967.000000,-0.080822,0.567304,7.451643,0.344983,0.659098,1.016922,24.530000
21490967.000000,0.389473,-0.275351,8.116253,0.004954,0.492432,0.852074,24.530000
21513967.000000,0.692045,-0.590801,8.556342,-0.282252,0.299670,0.612147,24.530000
21536968.000000,0.831861,-0.425871,8.851385,-0.403658,0.254516,0.494917,24.620000
21559968.000000,1.222966,-0.463564,9.326863,-0.488935,0.231934,0.507581,24.480000
21582968.000000,2.351437,-1.275998,9.756296,-0.763624,-0.003954,0.484160,24.580000
21605968.000000,3.847740,-2.605243,9.801703,-1.121111,-0.306810,0.358598,24.480000
21628967.000000,4.337542,-3.404022,10.004653,-1.126930,-0.242519,0.300092,24.530000
21651968.000000,2.972013,-2.920085,11.111421,-0.637242,0.232167,0.477261,24.720000
21674967.000000,0.759745,-1.683578,12.562306,-0.120174,0.624743,0.765208,24.530000
21697968.000000,-0.626795,-0.826184,13.064006,-0.090936,0.579354,0.849039,24.620000
21720968.000000,-1.009755,-0.532506,12.550042,-0.447300,0.273463,0.628747,24.580000
21743968.000000,-1.381598,-0.086141,12.044638,-0.630575,0.050320,0.359728,24.580000
21766968.000000,-1.853925,0.610357,11.755160,-0.300755,0.067644,0.316483,24.580000
21789968.000000,-1.636815,0.736443,10.998359,0.342028,0.326143,0.446680,24.480000
21812967.000000,-0.881539,-0.031378,9.924764,0.803635,0.638196,0.465376,24.530000
21835967.000000,-0.761781,-0.831232,9.546220,0.753530,0.613414,0.217526,24.530000
21858967.000000,-1.585472,-0.752394,9.913344,0.318298,0.078451,-0.147248,24.530000
21881967.000000,-2.326472,-0.052566,9.934572,-0.051436,-0.537256,-0.347468,24.530000
21904968.000000,-2.309488,0.238049,9.362565,-0.079344,-0.622198,-0.277641,24.580000
21927968.000000,-2.112947,-0.294342,9.344368,0.033400,-0.184302,-0.116081,24.480000
21950968.000000,-2.382477,-0.971861,10.339539,-0.051828,0.157899,-0.099815,24.580000
21973968.000000,-2.819574,-1.015637,11.059895,-0.275484,0.063806,-0.237776,24.480000
21996967.000000,-2.928892,-0.538489,10.466525,-0.259282,-0.073692,-0.332000,24.530000
22019967.000000,-2.882710,-0.276750,9.425023,0.129488,0.206725,-0.250584,24.530000
22042967.000000,-3.021505,-0.570087,9.225947,0.603803,0.706494,-0.069738,24.530000
22065967.000000,-3.239384,-0.871196,9.621986,0.861991,0.889758,0.062822,24.530000
22088967.000000,-3.395074,-0.440845,9.556063,0.918042,0.674622,0.124127,24.530000
22111968.000000,-3.620099,0.413274,8.998261,0.955966,0.460615,0.208958,24.580000
22134968.000000,-3.836861,0.410549,8.794018,1.001719,0.476854,0.321462,24.480000
22157968.000000,-3.788637,-0.702752,9.114198,0.902937,0.515797,0.306060,24.580000
22180968.000000,-3.759272,-1.177414,9.245335,0.625849,0.334118,0.122753,24.580000
22203967.000000,-4.229832,0.297728,8.864297,0.353008,-0.001202,0.023742,24.530000
22226967.000000,-4.773752,2.281257,8.546334,0.214252,-0.258110,0.213112,24.530000
22249967.000000,-4.521654,2.602881,8.814767,0.156302,-0.318669,0.507723,24.530000
22272967.000000,-3.634597,1.528389,9.382192,0.143422,-0.217042,0.615092,24.530000
22295967.000000,-3.052586,0.867150,9.663934,0.233896,-0.049775,0.558067,24.530000
22318968.000000,-2.965095,1.055571,9.599645,0.400485,0.069699,0.540740,24.480000
22341968.000000,-2.689351,1.112509,9.539061,0.497911,0.072538,0.570216,24.580000
22364968.000000,-1.930177,0.699487,9.565385,0.460801,-0.003612,0.490569,24.580000
22387968.000000,-1.213525,0.502950,9.481245,0.385845,-0.074258,0.288013,24.440000
22410967.000000,-1.002155,0.880882,9.349580,0.404506,-0.100042,0.133362,24.530000
22433968.000000,-1.036819,1.403816,9.331008,0.570948,-0.051341,0.146084,24.440000
22456968.000000,-0.843702,1.706380,9.022945,0.827608,0.123529,0.249754,24.440000
22479968.000000,-0.505879,1.887601,7.912187,0.979160,0.350011,0.261930,24.480000
22502968.000000,-0.426650,1.994231,6.578183,0.797448,0.352506,0.077183,24.580000
22525968.000000,-0.490105,1.801646,6.305043,0.295131,-0.023994,-0.225557,24.580000
22548968.000000,-0.227101,1.292605,7.174539,-0.218329,-0.483255,-0.444482,24.580000
22571967.000000,0.097285,0.836538,7.785977,-0.501186,-0.595847,-0.425702,24.530000
22594967.000000,-0.354709,0.635021,7.501828,-0.620017,-0.412008,-0.160842,24.530000
22617968.000000,-1.389581,0.464047,7.558231,-0.650683,-0.354525,0.214635,24.620000
22640968.000000,-1.744898,0.314294,8.712847,-0.449558,-0.524751,0.427026,24.620000
22663968.000000,-1.217867,0.633928,9.454933,-0.067499,-0.646404,0.229616,24.580000
22686968.000000,-1.029240,1.293526,8.895220,-0.007750,-0.778105,-0.243912,24.480000
22709968.000000,-1.387725,1.198984,9.570340,-0.445760,-1.430719,-0.555928,24.580000
22732968.000000,-1.083089,0.043876,13.423907,-0.558624,-2.634236,-0.610636,24.580000
22755968.000000,-0.211767,-0.607014,16.761678,0.406421,-3.471664,-0.742656,24.440000
22778968.000000,-0.219331,0.523543,14.667666,1.642712,-3.092276,-0.938623,24.620000
22801967.000000,-0.676886,2.339080,9.142813,1.608117,-1.800283,-0.714940,24.530000
22824967.000000,0.334423,3.012589,6.783442,0.304699,-0.628869,-0.058084,24.530000
22847967.000000,2.377752,2.531258,9.146249,-0.612834,-0.166936,0.344996,24.530000
22870968.000000,2.941744,2.189885,11.269868,-0.208498,-0.234037,0.114389,24.480000
22893968.000000,1.552233,2.542562,9.706315,0.533818,-0.401983,-0.316415,24.480000
22916968.000000,0.358401,3.028192,6.895633,0.325677,-0.431336,-0.426638,24.580000
22939968.000000,0.734438,3.074201,6.544288,-0.665299,-0.320565,-0.247861,24.580000
22962968.000000,1.804498,2.722532,8.501219,-1.330432,-0.172342,-0.083904,24.620000
22985968.000000,2.352818,2.292719,10.087167,-1.192731,-0.040460,-0.027461,24.620000
23008967.000000,2.384267,1.921925,10.179360,-0.734924,0.102159,0.020226,24.530000
23031967.000000,2.469649,1.542931,9.899774,-0.493493,0.250027,0.082069,24.530000
23054968.000000,2.627195,1.121542,10.251758,-0.462684,0.314042,0.066359,24.620000
23077968.000000,2.368672,0.761492,10.810351,-0.370265,0.246972,-0.060260,24.480000
23100968.000000,1.526488,0.590611,10.731058,-0.146857,0.140902,-0.184603,24.580000
23123968.000000,0.668462,0.638324,10.043964,0.014520,0.119074,-0.166621,24.580000
23146968.000000,0.516160,0.827658,9.517111,-0.044752,0.184217,-0.011264,24.720000
23169968.000000,1.045215,1.023775,9.551824,-0.211510,0.246042,0.127329,24.620000
23192968.000000,1.543440,1.110522,9.759504,-0.227707,0.250567,0.112671,24.620000
23215968.000000,1.630965,1.081959,9.757818,-0.027131,0.214990,-0.040717,24.440000
