,Time (us),AccelX (m/s^2),AccelY (m/s^2),AccelZ (m/s^2),GyroX (rad/s),GyroY (rad/s),GyroZ (rad/s),Temp (C)
1871968.000000,0.122465,-3.828215,8.336905,-8.689135,-5.674835,-0.320000,24.580000
1894968.000000,1.317465,-5.253215,6.951905,-8.689135,-5.034835,-0.350000,24.670000
1917968.000000,2.494965,-6.670715,6.359405,-7.244135,-3.929835,-0.550000,24.620000
1940968.000000,2.828715,-7.244465,5.538155,-5.336635,-2.952335,-0.710000,24.720000
1963968.000000,2.840590,-7.451340,5.142530,-3.332885,-1.898585,-0.665000,24.720000
1986968.000000,2.851528,-7.549778,5.089718,-0.961010,-0.931710,-0.592500,24.620000
2009968.000000,2.496996,-7.193996,4.673311,1.194928,0.256727,-0.431250,24.670000
2032968.000000,2.329731,-7.406106,5.340108,3.232896,1.745946,-0.190625,24.670000
2055968.000000,2.281098,-7.567160,6.368507,4.891881,3.060556,-0.135312,24.670000
2078968.000000,1.701781,-6.412688,7.707706,5.711373,3.887860,-0.132656,24.670000
2101968.000000,0.542123,-4.800451,8.617305,5.846119,4.186513,-0.026328,24.720000
2124968.000000,0.347294,-4.644333,9.402105,5.948492,4.435839,-0.003164,24.620000
2147968.000000,-0.910120,-3.051274,10.589505,5.044678,4.240502,-0.141582,24.720000
2170968.000000,-2.298828,-0.794745,11.168205,3.592772,3.292833,-0.040791,24.720000
2193968.000000,-2.713181,0.298520,9.387555,3.171818,2.773999,0.159604,24.620000
2216968.000000,-3.070358,1.070153,7.007230,4.241342,3.584582,0.429802,24.580000
2239968.000000,-3.873947,2.035969,6.852068,5.471103,4.654874,0.599901,24.670000
2262968.000000,-4.685741,2.753877,8.299486,5.415984,4.945019,0.574951,24.580000
2285968.000000,-5.531638,4.242831,8.763196,4.758425,4.020092,0.637475,24.670000
2308968.000000,-5.709586,4.677308,7.195050,4.394645,3.272629,0.798738,24.620000
2331968.000000,-5.358561,4.064546,5.570978,4.102755,2.868897,0.699369,24.620000
2354968.000000,-5.423048,4.483166,5.248941,3.061810,2.122031,0.464684,24.720000
2377968.000000,-5.825291,5.922475,5.057923,1.506337,0.848598,0.357342,24.720000
2400968.000000,-5.956413,5.777130,5.137414,0.358601,-0.208119,0.388671,24.670000
2423968.000000,-5.236974,4.629458,5.542160,-0.540267,-0.981477,0.269336,24.770000
2446968.000000,-4.867255,4.020621,6.699532,-2.214701,-1.913156,-0.030332,24.670000
2469968.000000,-5.102395,4.516203,7.438219,-4.261918,-3.003995,-0.140166,24.580000
2492968.000000,-5.154965,4.683994,7.672562,-5.985526,-3.939415,-0.095083,24.720000
2515968.000000,-4.491250,3.017890,8.154733,-6.652331,-4.237125,-0.232542,24.720000
2538968.000000,-3.764392,1.359837,8.515819,-6.880733,-4.230980,-0.476271,24.620000
2561968.000000,-2.570964,-0.614189,9.631362,-6.869934,-3.942908,-0.698135,24.620000
2584968.000000,-1.839249,-1.681202,10.934134,-6.704534,-3.998871,-0.879068,24.620000
2607968.000000,-1.293392,-2.339708,10.885519,-6.446835,-4.141853,-0.959534,24.620000
2630968.000000,-0.670464,-3.148962,9.971212,-5.857985,-4.023344,-0.899767,24.670000
2653968.000000,-0.358999,-3.488588,8.794059,-4.843560,-3.559090,-0.759883,24.670000
2676968.000000,-0.063267,-3.758402,7.185482,-3.266347,-2.701962,-0.469942,24.720000
2699968.000000,0.454599,-4.298308,6.131193,-1.277741,-1.338399,-0.114971,24.720000
2722968.000000,0.968532,-5.283262,6.164049,1.061562,0.303383,0.072515,24.720000
2745968.000000,1.190498,-5.930738,7.235477,3.016213,1.624274,0.061257,24.720000
2768968.000000,0.951482,-5.384477,8.761191,3.388539,2.019720,0.035629,24.670000
2791968.000000,0.541973,-4.371346,9.829048,2.479702,1.497442,0.172814,24.770000
2814968.000000,-0.237781,-3.189780,9.587977,1.910284,1.211304,0.471407,24.670000
2837968.000000,-0.422658,-3.103998,8.522441,2.980574,1.873234,0.560704,24.670000
2860968.000000,-1.220096,-2.346106,8.464673,4.815720,3.194200,0.460352,24.620000
2883968.000000,-1.998816,-1.287161,9.745789,5.868292,4.044682,0.290176,24.720000
2906968.000000,-2.988175,0.762312,10.576347,6.009579,4.179924,0.335088,24.620000
2929968.000000,-3.577855,1.662049,11.046626,5.675222,3.917544,0.407544,24.620000
2952968.000000,-3.932695,2.456917,10.541765,4.858043,3.261355,0.408772,24.720000
2975968.000000,-4.410115,3.784351,8.934335,4.109454,2.658260,0.419386,24.670000
2998968.000000,-4.533825,4.303068,7.755620,3.865160,2.511712,0.464693,24.670000
3021968.000000,-4.675680,4.392426,7.441263,3.298012,1.943439,0.487346,24.670000
3044968.000000,-4.836608,4.827106,6.094084,2.744439,1.604302,0.508673,24.670000
3067968.000000,-4.582071,4.784445,5.440494,2.227652,1.224733,0.379337,24.720000
3090968.000000,-4.729803,5.303115,5.563700,1.499258,0.704949,0.264668,24.620000
3113968.000000,-4.603669,5.197450,6.205302,0.510062,0.070057,0.162334,24.720000
3136968.000000,-4.345602,5.144618,6.576104,-1.484537,-1.202389,0.046167,24.620000
3159968.000000,-4.691569,5.358201,6.521504,-3.456836,-2.533612,0.028084,24.770000
3182968.000000,-4.649552,4.684993,6.734205,-4.597985,-3.164223,0.119042,24.770000
3205968.000000,-3.888543,4.343389,7.675555,-4.588560,-3.219529,0.139521,24.670000
3228968.000000,-3.493039,3.627587,8.186230,-4.518848,-3.407182,0.179760,24.670000
3251968.000000,-2.370287,1.799686,7.711567,-4.933991,-3.286009,0.209880,24.810000
3274968.000000,-1.268911,0.270736,9.279236,-5.631563,-3.165422,0.009940,24.720000
3297968.000000,-0.838223,-0.788740,10.023071,-5.945349,-3.560128,-0.290030,24.720000
3320968.000000,-0.652879,-1.398477,9.544988,-5.627242,-3.607482,-0.465015,24.720000
3343968.000000,-0.305207,-2.423346,8.660946,-4.963189,-3.316158,-0.472507,24.620000
3366968.000000,0.433629,-3.480781,8.433926,-4.811162,-2.930497,-0.331254,24.720000
3389968.000000,1.358047,-4.959498,9.305415,-4.460148,-2.732666,-0.345627,24.670000
3412968.000000,1.985256,-5.958856,9.366160,-3.819642,-2.593750,-0.412813,24.580000
3435968.000000,1.983860,-6.238536,8.451533,-3.159388,-2.344293,-0.366407,24.720000
3458968.000000,2.333163,-7.318375,7.304219,-2.844262,-1.889564,-0.068203,24.620000
3481968.000000,2.037814,-7.643295,6.240562,-2.586698,-1.377199,0.185898,24.620000
3504968.000000,2.770139,-6.695755,6.418733,-1.817917,-0.866017,0.452949,24.620000
3527968.000000,3.046302,-7.276985,5.432819,-0.833526,-0.260426,0.481475,24.770000
3550968.000000,2.479384,-7.072600,5.129862,-0.271330,0.412369,0.465737,24.770000
3573968.000000,2.330924,-6.010408,5.398384,0.459767,0.903767,0.612869,24.670000
3596968.000000,2.111695,-5.364311,5.397644,1.600316,1.664466,0.886434,24.670000
3619968.000000,1.702080,-6.186263,6.312275,3.120591,3.019816,1.163217,24.620000
3642968.000000,1.702272,-7.282239,7.199590,4.085728,3.717490,1.171609,24.720000
3665968.000000,1.167369,-6.680227,8.183247,3.623296,3.066328,0.960804,24.620000
3688968.000000,0.474917,-4.864221,8.490076,2.942081,2.525746,0.905402,24.810000
3711968.000000,-0.076309,-3.791218,8.918491,3.476473,2.465456,1.122701,24.720000
3734968.000000,-0.691922,-3.849717,9.997698,4.683669,2.725310,1.231351,24.580000
3757968.000000,-1.719729,-2.348966,10.207301,5.162267,2.535238,1.115675,24.670000
3780968.000000,-2.853632,-0.033590,10.232103,4.831566,2.170201,1.122838,24.670000
3803968.000000,-3.705583,1.959097,9.764504,4.406215,1.787683,1.326419,24.670000
3826968.000000,-4.276559,3.200441,9.280705,4.013540,1.561424,1.658209,24.720000
3849968.000000,-3.442047,1.891113,10.783805,3.352203,1.373295,1.614105,24.720000
3872968.000000,-2.409791,1.646449,11.775355,1.951534,0.484230,1.237052,24.720000
3895968.000000,-1.503663,1.739117,11.996130,0.061199,-0.545303,0.873526,24.720000
3918968.000000,-0.545599,1.355451,11.751517,-1.213968,-1.280069,0.581763,24.670000
3941968.000000,0.498433,0.228618,11.689211,-1.376551,-1.592452,0.270882,24.670000
3964968.000000,1.200449,-0.764798,12.113058,-1.187843,-1.823643,-0.234559,24.670000
3987968.000000,1.151457,-0.891507,12.249982,-1.353489,-2.319239,-0.877280,24.580000
4010968.000000,0.676961,0.020139,11.343443,-1.986312,-2.962037,-1.343640,24.720000
4033968.000000,0.959713,1.115962,9.895174,-2.652724,-2.948436,-1.636820,24.720000
4056968.000000,-0.028911,0.253874,10.356040,-2.825929,-2.501636,-1.613410,24.720000
4079968.000000,0.061777,-0.667171,10.631472,-2.997532,-2.573235,-1.541705,24.720000
4102968.000000,0.297121,-1.492693,9.914189,-3.273334,-2.614035,-1.510852,24.720000
4125968.000000,0.554793,-1.785454,9.375547,-3.371234,-2.464435,-1.505426,24.720000
4148968.000000,0.583629,-2.211834,9.256226,-3.215185,-2.129635,-1.432713,24.670000
4171968.000000,0.623047,-3.710025,9.066565,-2.487160,-1.507235,-1.311357,24.670000
4194968.000000,0.662756,-4.259120,8.766735,-1.833147,-1.221035,-1.305678,24.720000
4217968.000000,0.057610,-3.793667,8.746820,-1.126141,-0.847935,-1.227839,24.620000
4240968.000000,-0.734962,-2.370941,8.501863,-0.182638,-0.366385,-0.808920,24.720000
4263968.000000,-1.056249,-2.509578,7.964384,1.039113,0.384390,-0.239460,24.720000
4286968.000000,-0.696892,-3.268897,7.910644,2.119989,1.519777,0.040270,24.670000
4309968.000000,-1.647213,-3.083556,8.643775,2.105427,1.927471,0.130135,24.770000
4332968.000000,-2.032374,-2.595885,8.590340,2.033146,1.956318,0.360068,24.670000
4355968.000000,-2.234955,-2.847050,8.313622,2.477006,2.280742,0.700034,24.770000
4378968.000000,-2.386245,-2.432633,9.190264,2.198935,2.582953,0.790017,24.720000
4401968.000000,-2.876890,-2.170424,10.143584,1.134900,1.854059,0.765008,24.720000
4424968.000000,-2.672212,-1.884319,9.975245,0.682883,1.239612,0.797504,24.720000
4447968.000000,-2.584874,-1.696267,9.651075,1.191874,1.267389,0.973752,24.720000
4470968.000000,-2.211204,-1.757241,9.393990,2.066369,1.596277,1.156876,24.720000
4493968.000000,-2.169370,-1.322728,10.365447,2.878617,1.885721,1.253438,24.670000
4516968.000000,-2.723452,-0.130472,11.811176,3.754741,1.895443,1.471719,24.670000
4539968.000000,-2.500494,0.635657,10.704041,4.717803,1.965304,1.770860,24.770000
4562968.000000,-2.139014,1.588721,8.920473,5.844334,2.495234,1.940430,24.670000
4585968.000000,-2.148275,3.560253,8.053689,6.637600,3.035200,1.910215,24.810000
4608968.000000,-2.397905,5.501019,7.205297,6.469232,3.110182,1.865107,24.810000
4631968.000000,-2.342720,6.651402,6.246101,5.210049,2.832674,1.772554,24.720000
4654968.000000,-2.020127,6.441593,5.466503,3.200457,2.258919,1.501277,24.620000
4677968.000000,-1.728831,6.541689,5.031704,1.015661,1.622042,1.140638,24.770000
4700968.000000,-1.473183,6.711737,4.644304,-0.131737,1.178604,0.935319,24.670000
4723968.000000,-1.455359,6.536761,4.355605,-0.550436,1.156884,0.872660,24.770000
4746968.000000,-1.651447,5.959273,4.446255,-1.029786,1.286025,0.976330,24.580000
4769968.000000,-1.834491,5.565529,4.601580,-2.054460,1.310595,1.183165,24.720000
4792968.000000,0.653987,5.003657,4.839242,-3.266798,1.647880,0.926582,24.620000
4815968.000000,0.283226,4.357721,6.098074,-4.367966,2.046522,0.388291,24.620000
4838968.000000,0.377845,2.949753,6.727489,-5.213551,2.095844,-0.280854,24.620000
4861968.000000,0.045155,1.805769,7.467197,-5.751343,1.705504,-0.920427,24.720000
4884968.000000,-1.256190,1.278777,10.102051,-5.460239,1.490335,-1.230214,24.720000
4907968.000000,-1.466862,0.620281,10.699478,-4.924687,0.947750,-1.345107,24.670000
4930968.000000,-1.467199,-0.733967,10.323192,-5.071911,0.516457,-1.737553,24.670000
4953968.000000,-1.632367,-3.001091,11.105048,-5.570523,0.185811,-2.333777,24.720000
4976968.000000,-2.079951,-3.894653,12.380977,-5.819829,-0.389512,-2.886888,24.720000
4999968.000000,-2.058743,-4.346434,11.848941,-5.399482,-0.917173,-2.998444,24.620000
5022968.000000,-0.683139,-5.802324,10.832923,-4.509308,-1.171004,-2.829222,24.720000
5045968.000000,-0.150337,-6.025270,10.859914,-3.754222,-1.352920,-2.734611,24.480000
5068968.000000,-0.008936,-5.521742,10.598409,-3.641678,-1.638877,-2.512306,24.670000
5091968.000000,0.991765,-6.664979,8.662657,-3.920407,-1.826856,-2.181153,24.580000
5114968.000000,3.942115,-6.741597,5.054781,-4.449771,-1.830846,-2.235576,24.670000
5137968.000000,3.277290,-9.119906,5.050843,-4.819453,0.317160,-2.632788,24.720000
5160968.000000,-1.000123,-14.249060,6.923874,-4.019294,2.701162,-2.336394,24.620000
5183968.000000,1.146171,-13.188638,8.435390,-2.279214,1.803164,-1.458197,24.620000
5206968.000000,1.474318,-12.133426,6.801147,-0.809175,0.899164,-0.939099,24.620000
5229968.000000,1.178392,-10.885821,6.599026,-0.079155,0.577165,-0.929549,24.720000
5252968.000000,0.700428,-10.252018,5.742966,0.625855,0.571165,-0.789775,24.670000
5275968.000000,0.716447,-10.010116,5.499935,1.053360,0.688165,-0.739887,24.670000
5298968.000000,0.864456,-10.119166,6.283420,1.382113,0.426665,-0.944944,24.670000
5321968.000000,0.478460,-9.178690,5.580163,1.561489,0.320915,-1.072472,24.670000
5344968.000000,0.210463,-8.288453,5.218534,1.636177,0.243040,-1.016236,24.620000
5367968.000000,0.116464,-8.143334,4.537719,1.603521,0.204102,-0.928118,24.620000
5390968.000000,0.109464,-8.030774,4.842312,1.847193,0.309634,-0.794059,24.620000
5413968.000000,0.050965,-7.624495,4.474609,2.204029,0.592399,-0.637029,24.720000
5436968.000000,-0.463285,-7.006355,4.845757,2.422447,0.843782,-0.523515,24.670000
5459968.000000,-0.850410,-6.767285,5.256331,3.011656,1.179474,-0.321757,24.670000
5482968.000000,-1.263973,-6.992750,5.921618,4.166260,2.067319,-0.085879,24.670000
5505968.000000,-2.695754,-5.690482,6.839261,4.818563,2.981242,-0.012939,24.670000
5528967.000000,-4.241644,-4.204349,8.658083,4.574714,2.928204,0.003530,24.530000
5551968.000000,-5.229590,-3.271282,10.087494,4.577789,2.656684,0.206765,24.720000
5574968.000000,-6.573562,-3.309748,10.757200,4.174327,1.100925,0.218383,24.720000
5597968.000000,-3.030549,-1.008982,12.342052,3.477596,0.873045,0.169191,24.620000
5620968.000000,-5.634042,0.461402,9.804479,3.164231,1.954105,0.289596,24.720000
5643968.000000,-6.675788,0.426593,9.835692,3.257548,2.084635,0.624798,24.620000
5666968.000000,-7.301662,0.649189,9.481298,2.789206,2.059900,0.652399,24.670000
5689968.000000,-8.129598,1.425487,9.079102,1.445036,1.197532,0.526199,24.770000
5712968.000000,-8.078567,1.828636,7.743003,0.722950,0.496349,0.668100,24.720000
5735968.000000,-7.483051,1.570211,6.479954,1.031908,0.950757,1.084050,24.620000
5758968.000000,-6.470293,1.350998,6.283430,1.561386,2.122961,1.257025,24.620000
5781968.000000,-7.148914,1.261391,6.510167,0.976126,2.789063,1.083512,24.720000
5804968.000000,-7.458224,0.581588,7.173536,0.373495,2.162114,0.916756,24.670000
5827968.000000,-7.252880,-0.043313,6.900221,-0.027820,1.318639,0.678378,24.670000
5850968.000000,-6.480207,-0.225764,6.758563,-0.868477,1.046902,0.104189,24.670000
5873968.000000,-5.893871,0.028010,6.762734,-1.548806,0.121034,-0.507905,24.670000
5896968.000000,-6.060703,0.769898,6.319819,-1.843971,-0.466901,-0.623953,24.620000
5919968.000000,-6.034119,0.645841,6.743362,-2.101553,-0.665868,-0.631976,24.620000
5942968.000000,-5.185827,-0.346187,6.680134,-2.110344,-0.855351,-0.645988,24.720000
5965968.000000,-4.826681,-0.762201,6.868519,-1.839739,-0.825093,-0.562994,24.720000
5988968.000000,-5.067108,-0.655208,7.402712,-1.594437,-0.734964,-0.391497,24.720000
6011968.000000,-5.092322,-0.966711,7.834809,-1.541786,-0.684900,-0.330749,24.580000
6034968.000000,-4.669928,-1.202463,7.695857,-1.545461,-0.959867,-0.290374,24.770000
6057968.000000,-4.503732,-1.390339,8.121381,-1.297298,-1.002351,-0.085187,24.770000
6080968.000000,-4.445633,-1.249277,8.229143,-1.323216,-1.353593,-0.007594,24.770000
6103968.000000,-3.701584,-1.673746,8.253024,-1.486176,-1.669214,0.051203,24.620000
6126968.000000,-2.699560,-2.220981,8.524964,-1.547655,-1.847025,0.180602,24.720000
6149968.000000,-1.768547,-2.204598,8.350935,-1.428395,-1.830930,0.375301,24.720000
6172968.000000,-1.028041,-2.161406,8.378920,-1.553765,-1.842882,0.487650,24.620000
6195968.000000,-0.277788,-2.994811,8.852912,-1.941450,-2.143859,0.468825,24.670000
6218968.000000,0.662338,-4.491513,9.319909,-2.355293,-2.864347,0.279413,24.670000
6241968.000000,2.652402,-5.574864,8.163407,-2.507214,-3.294591,0.079706,24.770000
6264968.000000,3.952433,-4.751539,6.860156,-2.373174,-3.224713,0.119853,24.670000
6287968.000000,4.427449,-4.989877,6.753530,-1.466155,-2.414774,0.714927,24.620000
6310968.000000,4.099957,-5.789046,9.545218,-0.717645,-1.809804,0.697463,24.720000
6333967.000000,5.166211,-5.653631,7.646061,-0.573390,-2.107320,0.393732,24.530000
6356967.000000,6.054338,-4.945923,6.431483,0.203738,-1.301077,0.716866,24.530000
6379968.000000,6.813402,-5.042069,5.764194,1.947301,0.452044,1.548433,24.620000
6402968.000000,6.342933,-7.640142,8.620550,3.434083,2.648604,1.644216,24.620000
6425968.000000,3.802699,-5.499178,11.143727,3.492474,2.481885,0.592108,24.670000
6448968.000000,1.997582,-1.433697,8.795316,2.061670,1.763525,-0.408946,24.770000
6471968.000000,0.610024,-0.275956,8.331111,0.221267,1.639345,-0.829473,24.720000
6494968.000000,0.021244,-2.042085,11.319008,-0.723934,1.767255,-1.129736,24.720000
6517968.000000,-0.078145,-3.305150,11.642956,-1.516534,0.906210,-1.794868,24.620000
6540968.000000,0.807160,-3.081683,9.114931,-2.167835,0.330687,-2.517434,24.720000
6563968.000000,0.769812,-2.454949,7.715918,-2.803485,0.507926,-2.758717,24.670000
6586968.000000,0.581139,-3.056582,8.506411,-2.651310,1.071546,-2.449359,24.670000
6609968.000000,0.746802,-4.027398,8.181658,-2.170222,1.368355,-2.114679,24.670000
6632968.000000,0.519633,-3.487807,7.004282,-1.419679,1.751760,-1.672340,24.670000
6655968.000000,-0.958951,-2.318011,8.060593,0.235593,2.788463,-0.431170,24.620000
6678968.000000,-2.718243,-0.343113,9.548749,2.603229,3.676814,1.424415,24.620000
6701968.000000,-4.207889,-1.675664,10.197827,4.317047,4.360989,3.082208,24.620000
6724968.000000,-5.177712,-2.746939,10.947366,5.323956,4.618077,3.776104,24.720000
6747968.000000,-5.782623,-2.247577,11.047136,5.452411,4.166621,3.768052,24.720000
6770968.000000,-6.690079,-1.567896,11.262020,5.271638,3.450893,3.489026,24.670000
6793968.000000,-7.403807,-1.808056,11.624463,3.806251,2.278029,2.324513,24.580000
6816968.000000,-7.165671,-2.038135,10.935684,1.623558,-0.183403,0.502256,24.670000
6839968.000000,-7.491603,-1.438175,10.336294,-0.702788,-2.419119,-1.693872,24.670000
6862968.000000,-8.204569,-0.033195,9.306600,-3.175962,-4.291977,-3.816936,24.720000
6885968.000000,-8.356052,1.039295,8.691752,-4.437548,-5.038406,-4.763468,24.620000
6908968.000000,-6.996794,0.630540,7.499329,-4.538342,-4.951620,-4.541734,24.620000
6931968.000000,-4.617164,-0.388838,6.503117,-4.178738,-4.168228,-3.915867,24.810000
6954968.000000,-2.312350,-1.298526,5.470011,-2.888937,-3.046531,-2.647933,24.670000
6977968.000000,-0.934942,-2.163371,5.123458,-1.134036,-1.235683,-0.933967,24.670000
7000968.000000,-1.391239,-3.670793,6.675181,0.863415,0.764741,0.853017,24.670000
7023968.000000,-2.924387,-4.714504,7.811043,1.587140,2.034953,1.736508,24.670000
7046968.000000,-4.620961,-4.551359,8.933974,1.659002,2.000059,2.148254,24.620000
7069967.000000,-6.094248,-3.434787,9.120440,2.554934,2.257612,2.924127,24.530000
7092968.000000,-7.170891,-2.506501,8.303672,4.227899,3.096388,4.082064,24.620000
7115968.000000,-8.829213,-1.172358,8.590289,5.724382,4.020777,4.796032,24.720000
7138968.000000,-10.723374,0.499713,7.603597,4.802624,3.122971,4.003016,24.620000
7161968.000000,-10.355455,2.540749,5.260251,3.496744,2.174068,3.196508,24.620000
7184968.000000,-10.561495,3.856267,4.768578,3.148805,2.069616,3.228254,24.670000
7207968.000000,-10.754515,4.394026,4.692741,2.594835,1.652391,3.034127,24.670000
7230968.000000,-9.851025,4.392906,3.639823,1.417850,0.853778,2.312063,24.620000
7253968.000000,-8.604280,4.832345,1.898364,0.539357,0.354471,1.851032,24.720000
7276968.000000,-7.830907,5.132065,1.437635,1.170111,1.064818,2.310516,24.620000
7299968.000000,-7.389221,4.951925,1.522270,1.110488,1.474992,2.230258,24.720000
7322968.000000,-6.773378,5.281855,0.049587,-0.854323,0.830078,1.130129,24.670000
7345968.000000,-6.280457,4.421820,0.463246,-2.816729,0.562622,-0.034936,24.580000
7368968.000000,-7.858996,3.626803,3.795076,-3.967932,0.918893,-0.722468,24.670000
7391968.000000,-8.503265,3.219294,6.130990,-4.453534,0.742029,-1.171234,24.580000
7414968.000000,-7.805400,2.305539,6.248948,-4.981334,-0.266403,-1.780617,24.720000
7437968.000000,-7.141468,0.178662,6.507926,-5.385235,-0.870619,-2.575308,24.720000
7460968.000000,-6.334501,-2.789776,7.302416,-5.647185,-1.497727,-3.837654,24.810000
7483968.000000,-5.651018,-4.683996,7.414660,-5.468160,-2.201281,-4.828827,24.620000
7506968.000000,-4.859277,-5.786105,7.410783,-4.543647,-2.283058,-4.879414,24.620000
7529968.000000,-5.153406,-5.342160,8.448844,-2.836391,-1.913946,-3.939707,24.580000
7552968.000000,-5.195470,-4.015188,7.462874,-0.622763,-1.364391,-2.104853,24.670000
7575968.000000,-4.041503,-3.346701,5.889890,1.049051,-0.639613,-0.182427,24.670000
7598968.000000,-3.529519,-3.097458,5.768397,2.024958,0.217776,1.283787,24.770000
7621968.000000,-2.998527,-2.537837,5.907651,3.112911,0.786471,2.731893,24.720000
7644968.000000,-2.293031,-1.893026,5.437278,4.761888,2.125818,4.385947,24.720000
7667968.000000,-2.915283,-1.550620,6.137092,5.726377,3.165491,5.292973,24.620000
7690968.000000,-3.541409,-0.439418,6.971998,5.123621,3.220328,4.836487,24.720000
7713968.000000,-4.074472,0.991184,6.789452,3.232243,2.382747,3.618243,24.670000
7736968.000000,-3.901003,0.661484,7.018178,0.856554,1.578956,2.134122,24.670000
7759968.000000,-3.354269,-0.363365,7.247542,-2.256291,0.482060,-0.072939,24.770000
7782968.000000,-3.310902,-1.940790,9.417223,-5.232713,-0.671387,-2.636470,24.670000
7805968.000000,-2.889219,-2.824503,10.002064,-6.960924,-2.258111,-4.898235,24.720000
7828968.000000,-2.218377,-2.656359,9.469485,-7.825029,-3.096473,-6.139117,24.720000
7851968.000000,-0.852956,-1.937287,8.173195,-7.337082,-3.035654,-5.624559,24.620000
7874968.000000,0.099755,-1.832751,6.525050,-5.458109,-2.025245,-3.682279,24.720000
7897968.000000,0.591110,-3.110483,5.645977,-2.673622,-0.080040,-0.961140,24.620000
7920968.000000,-0.333213,-4.109349,7.401441,0.113622,1.962563,1.604430,24.720000
7943968.000000,-2.065374,-4.573782,8.934173,2.822243,3.338864,3.667215,24.670000
7966968.000000,-4.091454,-3.865998,9.935539,4.366554,4.227014,4.593608,24.670000
7989968.000000,-6.894495,-1.087107,10.746222,4.858710,4.636090,4.946804,24.720000
8012968.000000,-8.701015,2.222339,10.586564,5.909787,4.815627,5.833402,24.720000
8035968.000000,-9.234275,3.272062,9.551734,6.835326,4.975396,6.336701,24.720000
8058968.000000,-9.335905,1.731924,9.854320,4.138096,3.690281,3.653350,24.720000
8081968.000000,-9.176720,-0.423146,10.920612,-1.705520,0.057723,-1.248325,24.770000
8104968.000000,-11.497127,-1.700680,10.858759,-5.197327,-1.843556,-4.984162,24.580000
8127968.000000,-14.372331,0.015552,13.877832,-6.593231,-1.804196,-6.852081,24.670000
8150968.000000,-13.459933,-0.636331,13.062368,-4.866183,-2.559515,-6.061041,24.580000
8173968.000000,-11.158734,-5.137273,11.129637,-2.652659,-1.852175,-4.335520,24.620000
8196968.000000,-9.718135,-9.157744,11.828271,-0.455897,-1.383505,-3.002760,24.620000
8219968.000000,-8.977835,-10.457980,11.022588,1.457484,-1.449170,-1.896380,24.620000
8242968.000000,-7.932685,-11.348097,10.219746,3.099174,-1.107003,-0.938190,24.720000
8265968.000000,-7.155110,-10.808156,9.263326,4.285020,-1.635919,-0.329095,24.620000
8288968.000000,-6.241322,-10.498186,7.775115,4.807942,-1.735377,0.015452,24.670000
8311968.000000,-5.854429,-10.273200,7.881010,5.139404,-1.785106,0.057726,24.580000
8334968.000000,-5.060982,-8.300708,6.123958,5.315134,-2.199970,-0.031137,24.670000
8357968.000000,-4.344258,-5.359461,4.760431,4.953000,-2.417403,-0.155568,24.580000
8380968.000000,-2.970897,-3.683838,3.663668,4.326932,-2.491119,-0.282784,24.720000
8403968.000000,-2.079216,-2.111027,2.510287,3.688899,-2.447977,-0.541392,24.620000
8426968.000000,-1.378375,0.065379,1.288596,2.599882,-2.481406,-1.015696,24.620000
8449968.000000,-0.037955,1.678582,-1.137250,1.400373,-2.238120,-1.332848,24.720000
8472968.000000,0.302255,3.235184,-3.350172,-0.159381,-1.396478,-1.471424,24.670000
8495968.000000,-1.607640,3.758484,-2.731634,-1.979258,-0.295656,-1.400712,24.580000
8518968.000000,-3.567588,1.915135,-0.022364,-3.719196,0.139754,-1.565356,24.670000
8541968.000000,-3.372561,-0.106540,2.127270,-4.699166,-0.217540,-2.007678,24.580000
8564968.000000,-2.295048,-0.617378,2.247088,-4.779150,-0.221188,-1.998839,24.620000
8587968.000000,-2.906292,-0.017796,2.146996,-4.044143,0.401989,-1.044420,24.620000
8610968.000000,-3.686913,-1.798006,3.566951,-3.481639,1.188577,-0.262210,24.620000
8633968.000000,-2.827224,-3.893110,3.286928,-3.000387,1.066871,-0.136105,24.720000
8656968.000000,-2.987380,-5.660663,5.416916,-2.914761,1.391018,-0.498052,24.620000
8679968.000000,-3.317457,-5.844439,5.736911,-3.026948,1.008091,-0.944026,24.620000
8702968.000000,-3.292496,-5.146327,6.666908,-2.823041,1.126628,-0.777013,24.670000
8725968.000000,-1.705016,-6.117271,6.496906,-1.056088,1.435897,0.306493,24.670000
8748968.000000,-2.676275,-7.437743,5.531906,1.562388,2.835531,1.798247,24.620000
8771968.000000,-7.086905,-6.192979,9.479405,3.291627,4.215348,2.699123,24.720000
8794968.000000,-9.062220,-4.385597,10.848155,3.971246,3.800256,3.404562,24.620000
8817968.000000,-8.909878,-4.636906,11.252530,4.451055,3.622711,3.652281,24.620000
8840968.000000,-8.978706,-4.382560,11.894718,3.725960,3.023938,2.511140,24.670000
8863968.000000,-10.138121,-2.560388,12.845811,2.243413,1.214551,0.985570,24.580000
8886968.000000,-10.417828,-0.264301,11.031358,0.562139,-0.500142,-0.047215,24.670000
8909968.000000,-9.792681,-0.151258,10.249132,-1.233498,-0.962488,-0.603607,24.580000
8932968.000000,-9.020108,-1.659737,9.418018,-2.931317,-0.963662,-1.501804,24.620000
8955968.000000,-8.713822,-2.958976,10.157462,-4.415226,-1.079248,-2.790902,24.620000
8978968.000000,-8.355678,-3.998595,10.627183,-5.047180,-1.687042,-3.735451,24.720000
9001968.000000,-7.061607,-4.688405,10.327044,-4.458158,-2.220938,-3.902725,24.620000
9024968.000000,-5.614571,-5.133310,9.576975,-2.998646,-2.122887,-2.776363,24.580000
9047968.000000,-6.306053,-7.055763,9.601940,-1.713891,-1.513861,-1.383181,24.770000
9070968.000000,-7.141794,-10.566989,11.504422,-0.341513,-0.879348,-0.211591,24.670000
9093968.000000,-5.749664,-13.422602,12.490664,0.984676,-0.657091,0.189205,24.670000
9116968.000000,-5.388600,-12.750408,11.378784,2.167771,-0.880963,0.414602,24.670000
9139968.000000,-5.653067,-10.774312,10.532845,3.394318,-0.687899,1.152301,24.620000
9162968.000000,-5.885301,-9.566263,9.139875,4.657591,-0.066367,2.316151,24.620000
9185968.000000,-5.891418,-8.007239,8.498390,5.339228,0.514399,3.118075,24.620000
9208968.000000,-5.029477,-6.362727,8.097647,5.135047,-0.110218,3.114038,24.620000
9231968.000000,-3.748506,-3.910471,6.162276,4.772956,-0.722527,3.002019,24.580000
9254968.000000,-2.723020,-2.874343,4.529591,4.421910,-0.458681,3.086009,24.580000
9277968.000000,-2.905278,-2.411279,4.898248,2.986388,-0.256758,2.073005,24.580000
9300968.000000,-1.616406,-1.544747,4.582576,0.468626,-1.600796,0.021502,24.670000
9323968.000000,-1.161971,-2.251481,2.529741,-2.525254,-2.152816,-2.294249,24.620000
9346968.000000,-2.479753,-2.829848,2.713323,-4.852195,-1.578825,-4.247124,24.620000
9369968.000000,-3.168644,-2.564032,5.190114,-5.340665,-1.546830,-5.223562,24.620000
9392968.000000,-2.118089,-0.291123,5.933509,-3.784900,-2.255833,-4.146781,24.620000
9415968.000000,-0.792812,1.100331,3.495207,-1.582017,-1.495334,-1.978391,24.720000
9438968.000000,-0.670174,0.856058,3.256056,0.369424,0.169916,0.280805,24.580000
9461968.000000,-1.583854,-0.026079,3.731481,1.635144,1.117540,1.780402,24.580000
9484968.000000,-2.315695,-0.397147,4.994193,2.128005,1.456353,2.250201,24.580000
9507968.000000,-2.331615,0.042319,5.100549,2.574435,1.305759,2.610101,24.620000
9530968.000000,-1.684575,0.227052,4.073727,2.562650,1.065462,2.565050,24.620000
9553968.000000,-2.191055,0.039419,3.810316,1.481757,0.945313,1.542525,24.620000
9576967.000000,-2.214295,0.005602,4.138610,-0.678689,0.390239,-0.033737,24.530000
9599968.000000,-3.035915,-0.696307,5.937758,-2.748912,-0.092298,-1.226869,24.670000
9622968.000000,-2.901725,-2.677261,6.547331,-4.604023,-0.413566,-2.243434,24.580000
9645968.000000,-3.324630,-3.847738,7.407118,-5.806579,-0.339201,-3.121717,24.580000
9668968.000000,-2.796082,-3.207976,9.092012,-5.392857,-0.637018,-2.910859,24.580000
9691968.000000,-0.506809,-4.583096,8.079458,-3.165996,-0.730926,-1.240429,24.620000
9714967.000000,0.002828,-6.440655,6.358182,-0.422566,0.572119,0.944785,24.530000
9737968.000000,-2.132353,-6.969435,7.687543,1.249150,2.123642,2.217393,24.720000
9760968.000000,-4.234944,-7.433825,9.967224,1.975007,2.219404,2.693696,24.620000
9783968.000000,-3.966240,-8.556020,10.427065,2.082936,1.967284,2.366848,24.580000
9806968.000000,-4.236887,-8.427118,10.621985,1.731901,1.571225,1.178424,24.580000
9829968.000000,-5.852211,-6.837666,10.634445,0.851383,1.338195,-0.165788,24.580000
9852968.000000,-7.074873,-5.202941,10.805675,-0.088876,1.056680,-0.907894,24.580000
9875968.000000,-6.736204,-5.530578,11.331290,-0.984006,0.595922,-1.288947,24.670000
9898968.000000,-5.726870,-6.709396,10.304097,-2.016570,0.205544,-1.914473,24.620000
9921968.000000,-5.577202,-6.313806,9.865501,-2.472853,0.245354,-2.177237,24.620000
9944967.000000,-6.097369,-5.026010,10.266203,-1.980994,0.255260,-1.518618,24.530000
9967968.000000,-5.612452,-4.987113,9.121554,-0.470064,0.475212,0.115691,24.620000
9990968.000000,-6.609993,-5.032664,9.034230,1.055400,1.180189,1.812845,24.670000
10013968.000000,-7.583764,-5.885439,9.570567,1.883133,1.367677,2.681423,24.480000
10036968.000000,-8.195650,-6.696827,10.028736,1.976999,0.946421,2.495711,24.580000
10059968.000000,-9.326592,-6.447521,10.612821,1.328932,0.140793,1.517856,24.670000
10082968.000000,-9.502064,-5.782868,10.084863,0.554898,-1.032021,0.583928,24.620000
10105968.000000,-8.599799,-5.365542,8.060884,-0.442118,-1.703428,-0.303036,24.620000
10128968.000000,-8.123667,-5.266878,6.653894,-1.570627,-1.544132,-1.121518,24.620000
10151967.000000,-8.460601,-6.302547,6.810400,-2.474881,-1.049483,-2.140759,24.530000
10174968.000000,-7.554068,-7.200381,6.563652,-2.407008,-1.112159,-2.870380,24.620000
10197968.000000,-5.105802,-6.784298,5.940279,-1.298071,-1.383497,-2.310190,24.670000
10220968.000000,-4.086668,-6.676256,4.718592,0.146397,-1.284166,-1.000095,24.580000
10243968.000000,-4.197102,-6.837236,4.537748,1.278631,-0.874501,0.294953,24.580000
10266968.000000,-5.182318,-7.227725,5.012327,2.214748,-0.609668,1.262476,24.620000
10289968.000000,-5.574927,-7.297970,5.029616,2.927806,-0.407251,1.681238,24.620000
10312967.000000,-5.721231,-6.273093,4.853260,3.034336,-0.336043,1.630619,24.530000
10335968.000000,-5.359383,-5.820654,5.080083,2.997600,-0.210439,1.530310,24.620000
10358968.000000,-4.673459,-4.949434,5.058494,2.769233,-0.282637,1.195155,24.670000
10381968.000000,-5.155497,-2.988825,4.962699,2.290049,-0.468736,0.782577,24.580000
10404968.000000,-4.891516,-1.208520,5.054802,1.740457,-0.606786,0.696289,24.670000
10427968.000000,-3.554525,-0.493367,4.700854,1.245661,-0.840810,0.908144,24.580000
10450968.000000,-1.941030,-0.290791,4.523879,0.968263,-0.632823,1.149072,24.620000
10473968.000000,-0.829283,-0.124503,4.865392,0.779564,-0.363829,1.329536,24.620000
10496968.000000,-0.458409,0.198641,5.511149,0.490214,-0.094332,1.299768,24.720000
10519967.000000,-0.342972,0.835213,6.614027,0.200540,-0.074583,1.279884,24.530000
10542968.000000,0.724747,0.363499,7.885466,-0.144298,-0.499709,1.109942,24.670000
10565968.000000,3.788606,-0.537358,7.631185,-0.311716,-1.212272,0.949971,24.670000
10588968.000000,6.345535,-0.557787,6.359045,-0.440426,-1.548554,0.844986,24.580000
10611968.000000,6.329000,-0.978001,6.437975,-0.584780,-1.041694,0.662493,24.580000
10634968.000000,4.640733,-1.278108,8.207440,-0.601958,-0.153265,0.411246,24.620000
10657968.000000,2.371599,-1.073161,10.242173,-0.520546,0.375950,0.195623,24.620000
10680967.000000,0.482032,-0.335688,11.744539,-0.524841,0.410558,0.007812,24.530000
10703968.000000,-0.027752,-0.611952,12.230722,-0.591988,0.142861,-0.161094,24.620000
10726967.000000,-0.007643,-1.770083,12.238813,-0.570561,-0.035987,-0.350547,24.530000
10749968.000000,-0.122589,-2.189149,11.497859,-0.469848,-0.155411,-0.470274,24.580000
10772968.000000,-0.590062,-2.353682,11.132382,-0.324492,0.009877,-0.470137,24.580000
10795968.000000,-1.138799,-2.330949,11.534644,-0.111813,0.357521,-0.440068,24.670000
10818968.000000,-1.083167,-2.474582,11.285774,-0.070474,0.356343,-0.495034,24.580000
10841968.000000,-0.460351,-2.476398,10.086340,-0.014805,0.505754,-0.512517,24.620000
10864968.000000,-0.763943,-2.037307,9.866622,0.153030,0.935460,-0.461259,24.620000
10887968.000000,-1.325739,-2.117761,10.456764,-0.028052,0.610312,-0.570629,24.620000
10910968.000000,-0.711637,-3.187988,9.761834,-0.513594,0.107739,-0.935315,24.620000
10933967.000000,-0.614586,-3.878101,8.919370,-0.666364,0.136452,-1.192657,24.530000
10956968.000000,-2.136060,-3.953158,10.428137,-0.217750,0.985808,-1.171329,24.580000
10979968.000000,-3.316798,-3.840687,11.042521,-0.038442,1.030487,-1.270664,24.670000
11002968.000000,-3.692166,-3.914451,9.974713,0.011211,0.847826,-1.360332,24.670000
11025968.000000,-4.324851,-3.456333,9.245809,0.181038,0.831495,-1.305166,24.620000
11048967.000000,-5.441193,-2.877274,9.701357,0.270952,0.828330,-1.187583,24.530000
11071968.000000,-1.849364,-6.887744,9.104131,0.720908,-0.153252,-0.438792,24.620000
11094967.000000,-2.938449,-3.712980,6.520518,0.510887,-0.369044,-0.479396,24.530000
11117968.000000,-4.567992,-3.040597,7.218712,0.530876,0.143061,-0.534698,24.580000
11140968.000000,-5.827764,-3.249406,8.372808,0.475870,0.259113,-0.552349,24.580000
11163968.000000,-6.272649,-2.928811,7.799857,0.468368,0.067139,-0.506174,24.580000
11186968.000000,-6.890092,-2.683513,7.618381,0.369616,0.296152,-0.413087,24.580000
11209968.000000,-7.533814,-2.355864,7.902643,0.275241,0.075658,-0.291544,24.620000
11232967.000000,-7.375674,-2.667039,8.024774,0.258053,-0.309588,-0.290772,24.530000
11255967.000000,-7.156605,-2.477627,7.670839,0.314459,-0.627212,-0.275386,24.530000
11278968.000000,-6.992070,-2.207921,7.423872,0.367662,-0.541023,-0.172693,24.620000
11301968.000000,-7.059802,-1.868068,7.285389,0.484263,-0.272929,0.118654,24.580000
11324968.000000,-7.008669,-2.168142,7.996147,0.542564,-0.058882,0.309327,24.670000
11347968.000000,-6.808102,-2.158178,8.316526,0.431715,-0.121859,0.329663,24.580000
11370968.000000,-6.772818,-1.688197,8.461715,0.366290,-0.133347,0.434832,24.770000
11393967.000000,-6.950177,-1.368206,8.734310,0.278577,-0.174091,0.657416,24.530000
11416967.000000,-6.868856,-1.693210,9.125608,0.269721,-0.174463,0.888708,24.530000
11439967.000000,-7.013195,-1.815713,9.811256,0.210293,-0.349649,1.024354,24.530000
11462968.000000,-6.045365,-2.091964,9.444081,0.165579,-0.442242,1.092177,24.620000
11485967.000000,-5.226450,-2.010089,8.605493,0.168222,-0.283538,1.166088,24.530000
11508968.000000,-4.871993,-2.244152,8.556199,0.144544,-0.099187,1.238044,24.580000
11531968.000000,-4.689764,-2.611184,8.756552,0.142704,-0.012011,1.249022,24.580000
11554968.000000,-4.498649,-2.474699,9.106728,0.021785,-0.053423,1.159511,24.580000
11577968.000000,-3.763092,-2.226457,8.751817,-0.153675,-0.204129,1.049756,24.580000
11600967.000000,-3.070314,-1.977336,7.949361,-0.216405,-0.299482,1.019878,24.530000
11623968.000000,-2.413924,-1.892776,7.613133,-0.302770,-0.212158,1.019939,24.620000
11646968.000000,-2.295730,-1.775495,8.555019,-0.315953,-0.178497,1.094969,24.620000
11669967.000000,-1.626632,-2.101855,8.420962,-0.337544,-0.236666,1.112485,24.530000
11692968.000000,-0.922084,-2.095035,8.158933,-0.383339,-0.250750,1.021242,24.620000
11715968.000000,-0.469809,-1.401625,8.467919,-0.401237,-0.347793,0.980621,24.580000
11738968.000000,0.441328,-1.104920,8.292412,-0.465186,-0.536314,0.975311,24.580000
11761968.000000,1.411896,-1.266568,8.504659,-0.547161,-0.675574,0.917655,24.580000
11784968.000000,2.252181,-1.522391,8.895782,-0.603148,-0.710205,0.758828,24.720000
11807968.000000,2.827323,-1.585303,9.011343,-0.626141,-0.697520,0.574414,24.620000
11830967.000000,2.829894,-1.306759,9.734124,-0.642638,-0.611177,0.387207,24.530000
11853968.000000,2.781179,-1.227487,10.390515,-0.665887,-0.648006,0.228603,24.720000
11876968.000000,2.816822,-1.407851,10.808710,-0.657511,-0.636421,0.089302,24.580000
11899968.000000,2.739644,-1.473033,10.942807,-0.563323,-0.475628,-0.060349,24.580000
11922968.000000,2.191054,-1.310624,11.189856,-0.476229,-0.265231,-0.160175,24.580000
11945968.000000,1.376760,-0.934420,11.998381,-0.327682,-0.155033,-0.160087,24.480000
11968968.000000,1.124612,-1.171317,12.407643,-0.283408,-0.289934,-0.240044,24.720000
11991968.000000,1.188539,-1.744766,12.497274,-0.211272,-0.487385,-0.400022,24.620000
12014968.000000,1.165502,-2.111491,12.717089,-0.010203,-0.651110,-0.535011,24.620000
12037968.000000,0.943983,-2.489853,13.326997,0.100331,-0.927972,-0.672505,24.620000
12060968.000000,1.303224,-2.894034,13.366951,0.105598,-1.241404,-0.856253,24.580000
12083968.000000,1.517845,-3.121124,13.211928,0.183231,-1.253119,-0.993126,24.580000
12106968.000000,1.100155,-2.969670,13.464417,0.417048,-0.983977,-0.946563,24.580000
12129968.000000,0.661310,-2.858942,14.450661,0.633957,-0.754406,-0.768282,24.580000
12152968.000000,0.766887,-3.348579,14.728783,0.757411,-0.769621,-0.659141,24.620000
12175968.000000,1.194676,-4.228397,14.192844,0.849138,-0.847228,-0.704570,24.620000
12198967.000000,0.878571,-4.308306,13.494874,1.040001,-0.821031,-0.812285,24.530000
12221967.000000,0.320518,-3.658260,12.775890,1.350433,-0.797933,-0.781143,24.530000
12244968.000000,0.066491,-3.303238,11.301397,1.385649,-0.816384,-0.815571,24.580000
12267968.000000,-0.005522,-2.640726,9.414151,1.253257,-0.795610,-0.947786,24.670000
12290968.000000,-0.101528,-1.204471,7.280528,1.172061,-0.630222,-1.013893,24.580000
12313968.000000,-0.399532,0.343657,5.803717,1.241463,-0.267529,-0.816946,24.580000
12336968.000000,-0.538533,1.182721,4.860311,1.316164,0.018818,-0.458473,24.580000
12359967.000000,-0.518034,1.412253,3.853608,1.103515,0.131992,-0.284237,24.530000
12382967.000000,-0.622785,1.522019,3.050256,0.787190,0.308578,-0.232118,24.530000
12405967.000000,-0.880160,1.601902,2.583581,0.469027,0.511872,-0.191059,24.530000
12428967.000000,-1.393847,1.821844,2.660243,0.294946,0.673518,-0.055530,24.530000
12451967.000000,-1.485691,1.626814,2.593574,0.007906,0.629342,0.037235,24.530000
12474968.000000,-1.121613,1.109300,2.625239,-0.355615,0.507253,0.013618,24.580000
12497968.000000,-0.984574,1.045542,2.966072,-0.632375,0.511209,0.001809,24.580000
12520968.000000,-1.321055,1.108664,3.731489,-0.725755,0.698187,0.195904,24.670000
12543967.000000,-1.404295,0.500224,4.869197,-0.772445,0.891676,0.467952,24.530000
12566967.000000,-1.070915,-0.433995,6.273051,-1.015790,0.813421,0.503976,24.530000
12589968.000000,-0.549225,-1.061105,7.129978,-1.267462,0.494293,0.376988,24.620000
12612968.000000,-0.263380,-1.309660,7.458441,-1.398299,0.324729,0.298494,24.620000
12635968.000000,-0.480457,-1.368938,8.317673,-1.338717,0.399947,0.384247,24.580000
12658968.000000,-0.708996,-1.343576,9.372289,-1.338926,0.437556,0.437124,24.670000
12681968.000000,-0.548266,-1.590896,9.929597,-1.479030,0.341360,0.418562,24.580000
12704968.000000,-0.657900,-1.934555,10.203251,-1.519083,0.458263,0.414281,24.580000
12727968.000000,-0.652718,-2.191385,10.755078,-1.459109,0.661714,0.447140,24.620000
12750967.000000,-0.595126,-2.399800,12.190992,-1.429122,0.748439,0.443570,24.530000
12773968.000000,-0.841331,-2.609008,13.518948,-1.334128,0.736802,0.476785,24.620000
12796967.000000,-1.084433,-3.218611,14.152927,-0.986632,0.810984,0.628393,24.530000
12819968.000000,-0.680984,-3.633413,14.539916,-0.337883,1.058074,0.694196,24.580000
12842968.000000,-0.964259,-3.080814,15.113410,-0.208509,0.831620,0.507098,24.670000
12865968.000000,-1.110897,-2.824515,14.595158,-0.263822,0.498392,0.298549,24.670000
12888968.000000,-1.339216,-2.686365,13.771031,-0.186479,0.441779,0.174275,24.580000
12911968.000000,-1.323376,-2.517290,12.998968,-0.097807,0.353472,0.057137,24.620000
12934967.000000,-1.300455,-2.042752,12.377937,-0.163471,0.184318,-0.106431,24.530000
12957968.000000,-1.553995,-1.850484,12.277421,-0.176303,0.054742,-0.158216,24.620000
12980968.000000,-1.660765,-2.109349,11.747163,-0.182719,0.009953,-0.199108,24.620000
13003968.000000,-2.034150,-2.168782,12.047034,-0.130927,0.052559,-0.224554,24.580000
13026968.000000,-2.195843,-2.523499,12.461969,0.004969,-0.081138,-0.202277,24.480000
13049968.000000,-2.191689,-2.830857,12.479437,-0.112083,-0.362986,-0.296138,24.670000
13072968.000000,-1.939612,-3.079536,12.233171,-0.060609,-0.508911,-0.343069,24.580000
13095968.000000,-1.768573,-2.998875,12.045038,0.130128,-0.531873,-0.281535,24.580000
13118967.000000,-1.378054,-3.203545,11.935972,0.175497,-0.553354,-0.215767,24.530000
13141968.000000,-1.002795,-3.630880,11.851438,-0.031819,-0.759094,-0.347884,24.620000
13164967.000000,-0.650165,-4.079548,11.494172,-0.090477,-0.876965,-0.463942,24.530000
13187968.000000,-0.233850,-4.083881,10.445538,0.220194,-0.635900,-0.411971,24.620000
13210968.000000,0.079308,-3.746048,9.151222,0.550529,-0.205367,-0.285985,24.620000
13233968.000000,-0.009114,-3.037132,8.109063,0.875697,0.304899,-0.102993,24.580000
13256968.000000,-0.103324,-2.817673,7.677984,0.993281,0.640032,-0.031496,24.670000
13279968.000000,-0.705430,-2.767944,7.892445,0.552073,0.497598,-0.305748,24.580000
13302967.000000,-0.941482,-2.518080,7.179675,0.231469,0.386382,-0.577874,24.530000
13325967.000000,-1.139509,-2.178147,6.228290,0.201167,0.505773,-0.628937,24.530000
13348968.000000,-1.273522,-1.598181,5.427597,0.391016,0.730469,-0.484469,24.620000
13371968.000000,-1.395528,-1.288198,5.117251,0.145941,0.632817,-0.452234,24.620000
13394968.000000,-1.286532,-1.278207,4.407078,-0.146597,0.498991,-0.406117,24.580000
13417968.000000,-0.862033,-1.433211,3.671992,-0.327866,0.607078,-0.343059,24.580000
13440968.000000,-1.074784,-1.795713,4.294448,-0.523501,0.831122,-0.356529,24.480000
13463968.000000,-1.616160,-2.006964,5.330677,-0.886318,0.803143,-0.548265,24.580000
13486968.000000,-2.101847,-2.007589,5.593791,-1.357726,0.764154,-0.834132,24.620000
13509968.000000,-2.724691,-1.757902,6.265348,-1.938431,1.024660,-1.042066,24.620000
13532967.000000,-3.481113,-2.188059,7.641126,-2.288783,0.784912,-1.026033,24.530000
13555968.000000,-3.339324,-2.708137,7.649016,-2.223959,0.455039,-0.743017,24.620000
13578968.000000,-2.933430,-4.483176,7.492960,-2.426547,0.460102,-0.646508,24.580000
13601968.000000,-2.540482,-5.535695,7.939933,-2.412841,0.727633,-0.558254,24.580000
13624968.000000,-2.939009,-6.706955,8.343419,-2.215988,1.011399,-0.519127,24.580000
13647968.000000,-3.953272,-7.307585,8.815162,-1.952561,1.318282,-0.559564,24.580000
13670967.000000,-4.810403,-7.542900,8.946033,-1.420848,1.236724,-0.324782,24.530000
13693967.000000,-5.423969,-7.915558,8.771469,-0.749992,1.075944,0.222609,24.530000
13716967.000000,-6.255752,-7.936886,9.009187,-0.444563,0.015555,0.731305,24.530000
13739968.000000,-5.726644,-7.972551,8.088046,-0.741849,-0.424640,0.675652,24.620000
13762968.000000,-4.847089,-7.165383,8.077476,-0.990492,-0.379738,0.447826,24.580000
13785968.000000,-4.127312,-7.421799,7.662190,-0.859814,-0.442286,0.483913,24.580000
13808968.000000,-3.407424,-8.080007,6.659548,-0.859474,-0.303561,0.596957,24.580000
13831968.000000,-2.957479,-8.514111,6.568226,-0.829305,0.620802,0.403478,24.580000
13854968.000000,-3.292507,-7.831163,6.907566,-0.964220,1.037984,-0.163261,24.620000
13877967.000000,-3.295021,-7.219689,7.522235,-0.981677,0.166574,-0.226630,24.530000
13900968.000000,-2.951278,-8.288952,7.194570,-0.730406,0.240870,-0.073315,24.440000
13923967.000000,-1.424407,-8.908583,7.055738,-0.524771,0.633017,-0.271658,24.530000
13946967.000000,-1.305971,-8.823399,6.401321,-0.311953,1.779091,-0.955829,24.530000
13969968.000000,-2.351753,-7.625807,5.729113,-0.190544,2.922128,-1.227914,24.620000
13992968.000000,-3.719644,-7.632011,5.313009,-0.279839,3.468647,-0.993957,24.670000
14015968.000000,-3.483589,-8.285113,5.129957,-0.479487,3.891906,-0.656979,24.580000
14038968.000000,-5.610562,-7.726664,3.163431,-0.944311,4.053535,-0.738489,24.480000
14061968.000000,-5.959049,-8.062440,4.230168,-1.026723,3.884350,-0.499245,24.620000
14084967.000000,-5.953292,-7.965327,3.808537,-1.217929,3.584758,0.450378,24.530000
14107968.000000,-5.555413,-7.786771,2.967721,-1.758532,3.649961,1.830189,24.620000
14130968.000000,-5.561474,-7.407493,2.652313,-2.078834,3.727563,3.130094,24.620000
14153968.000000,-5.774505,-7.792854,1.399609,-2.108984,3.941364,3.520047,24.580000
14176968.000000,-7.471020,-6.505535,-0.051743,-1.984060,3.823265,3.705024,24.580000
14199968.000000,-6.834277,-5.126875,-1.247419,-1.951597,4.114215,4.142512,24.580000
14222968.000000,-6.935906,-5.332545,-2.515257,-2.180366,4.259690,4.576256,24.580000
14245968.000000,-8.951721,-4.710380,-3.729176,-2.004751,4.362427,4.243128,24.620000
14268968.000000,-8.559628,-4.379297,-5.496136,-1.811943,3.713796,2.746564,24.620000
14291967.000000,-9.138581,-2.798756,-7.944615,-2.030539,3.704481,3.163282,24.530000
14314967.000000,-8.448058,-3.088486,-6.783855,-2.024837,3.274823,3.466641,24.530000
14337968.000000,-7.422797,-2.563350,-6.568475,-1.831986,2.859994,3.473320,24.580000
14360968.000000,-6.440166,0.154217,-7.400785,-1.860560,2.747579,3.656660,24.480000
14383968.000000,-6.298850,1.178001,-7.501940,-2.164848,3.086372,4.683330,24.580000
14406968.000000,-5.168193,0.094893,-6.937518,-2.126991,3.125769,5.636665,24.580000
14429967.000000,-4.787864,0.308339,-7.155306,-1.643063,2.920467,5.553333,24.530000
14452968.000000,-3.882699,2.025062,-7.619201,-1.266099,2.357816,5.441666,24.620000
14475968.000000,-3.680117,3.318424,-7.666148,-1.077617,2.071490,6.395833,24.620000
14498967.000000,-2.808826,3.605104,-8.074621,-0.863376,1.433328,7.402917,24.530000
14521968.000000,-2.288181,4.058445,-8.603858,-0.621256,0.324246,7.406458,24.580000
14544968.000000,-1.957858,5.295115,-9.148477,-0.705195,-1.405294,7.148229,24.670000
14567968.000000,0.082304,4.043450,-9.715786,-0.587165,-2.690065,6.854115,24.580000
14590968.000000,0.892384,2.852617,-9.819440,-0.263150,-2.782450,6.062057,24.670000
14613968.000000,0.597425,4.037201,-10.131268,-0.316143,-2.953642,5.101029,24.620000
14636967.000000,-1.010055,5.279493,-10.282181,-0.777639,-4.019239,4.635514,24.530000
14659968.000000,-0.228795,1.745639,-10.037638,-1.048387,-5.052037,4.342757,24.620000
14682967.000000,1.776835,0.618712,-9.830367,-1.398761,-5.243436,2.786379,24.530000
14705967.000000,1.204650,1.855249,-9.416731,-1.718948,-5.199135,1.133189,24.530000
14728967.000000,-1.226443,4.688517,-8.529913,-2.514041,-5.121985,-0.243405,24.530000
14751968.000000,-1.956989,5.320151,-8.531504,-3.626588,-5.383410,-1.531703,24.580000
14774968.000000,-1.902262,6.080968,-8.247299,-4.947862,-5.524123,-3.090851,24.580000
14797968.000000,-3.404898,6.421376,-5.840197,-5.608498,-5.174479,-4.250426,24.580000
14820968.000000,-4.991217,5.911581,-3.716646,-5.863817,-5.149657,-5.205213,24.620000
14843968.000000,-7.914376,6.301683,-1.419871,-6.356476,-5.812246,-6.352606,24.620000
14866968.000000,-8.625955,6.501734,-1.216483,-6.282805,-5.993540,-6.391303,24.620000
14889967.000000,-9.081745,5.066759,0.715211,-6.025970,-5.789188,-5.975652,24.530000
14912968.000000,-8.459640,2.544272,2.181058,-5.767553,-5.747011,-5.947826,24.580000
14935968.000000,-6.613588,-0.076971,2.413982,-5.808344,-5.365923,-6.403913,24.580000
14958968.000000,-5.475561,-1.352593,4.225443,-5.218739,-4.285379,-5.756956,24.480000
14981968.000000,-4.026548,-3.410404,4.316174,-4.228937,-2.615107,-4.463478,24.580000
15004968.000000,-2.637042,-4.769310,1.531540,-3.764036,-0.049971,-3.551739,24.620000
15027967.000000,-5.592288,-5.718762,3.264222,-3.376586,2.837597,-3.385870,24.530000
15050967.000000,-7.149912,-5.398489,4.220564,-3.257860,3.266381,-3.147935,24.530000
15073967.000000,-6.253723,-5.308352,4.733734,-3.473498,2.975773,-2.718967,24.530000
15096968.000000,-4.570629,-6.818283,4.630320,-3.871316,1.835469,-2.399484,24.480000
15119968.000000,-4.094082,-7.798249,3.048612,-3.870226,0.915317,-1.114742,24.580000
15142968.000000,-5.425809,-10.428232,2.022759,-3.624680,1.065241,0.852629,24.480000
15165968.000000,-6.671672,-11.493224,0.904832,-3.251908,2.565203,0.801315,24.480000
15188967.000000,-7.134603,-10.845719,0.330868,-2.850521,2.495184,1.215657,24.530000
15211967.000000,-6.371069,-9.621967,-0.361113,-2.844828,2.700174,2.047829,24.530000
15234967.000000,-5.754302,-7.945091,-1.172104,-3.006982,2.757670,3.258914,24.530000
15257968.000000,-5.380919,-7.466653,-2.622600,-3.138058,2.911417,4.154457,24.620000
15280968.000000,-6.229227,-7.267434,-3.917847,-3.138597,3.048291,4.357229,24.580000
15303968.000000,-7.888381,-6.317825,-4.365471,-3.068866,2.596728,4.563614,24.580000
15326968.000000,-7.647958,-5.073020,-5.029283,-2.879000,2.085947,4.946807,24.670000
15349968.000000,-8.297746,-4.750617,-5.021189,-2.639068,1.500556,5.943404,24.580000
15372968.000000,-7.662641,-4.534416,-5.202142,-1.939101,1.147860,6.971702,24.620000
15395967.000000,-7.730088,-2.991316,-5.627619,-0.999118,0.461513,7.735851,24.530000
15418967.000000,-7.548811,-0.834765,-6.480357,-0.229127,-0.441661,8.067925,24.530000
15441967.000000,-7.893173,0.943510,-6.801726,0.335869,-1.228248,8.388963,24.530000
15464967.000000,-6.730354,0.647647,-7.177410,0.718367,-2.006542,8.254481,24.530000
15487968.000000,-7.698945,2.054716,-6.750253,1.159616,-2.730688,7.897241,24.620000
15510968.000000,-7.508240,1.753251,-6.936674,1.340241,-3.577762,7.288620,24.580000
15533968.000000,-5.172887,1.842518,-7.919884,1.150553,-4.441298,6.069310,24.580000
15556968.000000,-2.690211,3.052151,-8.846490,0.635709,-4.788067,4.209655,24.670000
15579968.000000,-3.073873,5.381968,-8.314792,-0.061713,-4.816451,2.829828,24.620000
15602967.000000,-3.665704,5.646877,-7.068944,-0.800424,-4.640643,1.354914,24.530000
15625967.000000,-3.056620,6.179331,-6.766019,-1.659780,-4.232739,-0.352543,24.530000
15648967.000000,-3.952077,7.055558,-5.599557,-2.389457,-3.878787,-1.606272,24.530000
15671968.000000,-4.474806,7.183671,-4.466326,-2.959296,-3.616811,-2.378136,24.480000
15694968.000000,-5.401171,6.617728,-2.534711,-3.464216,-3.590823,-3.179068,24.670000
15717968.000000,-5.469353,5.749757,-1.593903,-4.041675,-3.722829,-4.264534,24.580000
15740968.000000,-6.213444,4.765771,-0.108499,-4.780405,-3.698832,-5.597267,24.480000
15763968.000000,-7.225489,3.628778,1.729203,-5.039770,-3.126833,-6.478633,24.620000
15786968.000000,-6.976512,0.430281,4.323054,-4.854453,-3.115834,-7.474317,24.620000
15809967.000000,-7.432024,-0.753967,6.019980,-4.621794,-4.725335,-8.047158,24.530000
15832967.000000,-9.064779,-0.251091,3.083442,-4.705464,-5.450085,-7.108579,24.530000
15855968.000000,-8.881157,-0.699653,3.845174,-4.342300,-3.232460,-4.574290,24.580000
15878968.000000,-7.164346,-4.303934,4.571039,-3.590717,-2.633647,-2.482145,24.480000
15901968.000000,-5.415941,-7.751074,4.928972,-2.899926,-1.799241,-1.611072,24.580000
15924968.000000,-5.391738,-8.044645,5.422939,-2.534531,-1.552038,-1.505536,24.580000
15947967.000000,-5.164636,-6.546430,4.669922,-2.516833,-1.578437,-1.247768,24.530000
15970967.000000,-3.771086,-6.657322,3.708413,-2.092984,-1.226636,-0.023884,24.530000
15993968.000000,-3.284310,-9.147769,3.762659,-1.001059,0.089265,1.233058,24.620000
16016968.000000,-3.985923,-7.687992,3.604782,-0.495097,1.017215,1.976529,24.620000
16039968.000000,-4.166729,-6.308103,3.710844,-0.532116,1.376190,2.383264,24.670000
16062968.000000,-5.302132,-7.043159,4.653874,-0.185626,1.410677,2.891632,24.480000
16085968.000000,-5.634833,-9.150687,6.740390,0.532620,0.092921,2.855816,24.580000
16108968.000000,-5.486184,-6.019451,4.938647,0.571742,-0.975957,2.267908,24.580000
16131968.000000,-5.086860,-4.098833,4.617776,0.316304,-1.645396,2.023954,24.620000
16154967.000000,-5.592197,-5.378524,7.212341,0.548584,-2.350115,2.051977,24.530000
16177967.000000,-6.514866,-7.443370,10.004623,1.249725,-3.047475,1.860989,24.530000
16200968.000000,-5.641201,-6.380792,8.620764,1.500295,-3.116155,1.160494,24.620000
16223968.000000,-5.194368,-4.574504,7.918834,1.445580,-3.105495,0.765247,24.620000
16246968.000000,-3.910951,-4.631359,8.467870,1.538222,-2.705165,0.607624,24.620000
16269968.000000,-3.224243,-4.629787,8.967387,1.549544,-2.200000,0.183812,24.580000
16292968.000000,-3.820889,-3.524001,9.472146,1.250204,-1.897418,-0.303094,24.580000
16315968.000000,-4.234212,-2.611108,9.814526,0.900535,-1.546126,-0.486547,24.580000
16338968.000000,-4.295874,-2.664662,11.175715,0.950700,-1.180481,-0.418274,24.620000
16361967.000000,-4.056704,-2.926438,11.696310,1.160782,-0.732658,-0.414137,24.530000
16384968.000000,-3.982120,-3.082327,11.711608,0.985824,-0.378746,-0.717068,24.620000
16407967.000000,-4.484827,-1.650271,11.169256,0.703344,-0.346791,-0.938534,24.530000
16430968.000000,-5.596181,-0.509243,11.238081,0.607105,-0.430813,-0.699267,24.580000
16453968.000000,-5.106858,-1.348729,11.542493,0.868985,-0.377824,-0.264634,24.670000
16476968.000000,-4.557197,-2.293472,11.694699,1.039925,-0.436329,-0.097317,24.580000
16499968.000000,-4.292366,-2.790843,11.980802,0.960395,-0.590582,-0.243658,24.670000
16522968.000000,-4.414950,-2.554529,11.523853,0.870630,-0.742709,-0.376829,24.620000
16545968.000000,-4.876243,-2.116372,11.625379,0.870747,-0.688772,-0.368415,24.620000
16568967.000000,-5.356889,-1.757294,12.136142,0.955806,-0.576803,-0.169207,24.530000
16591967.000000,-5.397212,-1.917754,12.256524,1.108336,-0.610819,0.030396,24.530000
16614968.000000,-5.042373,-1.792985,11.861714,1.159600,-0.697827,0.115198,24.580000
16637968.000000,-4.549954,-1.455600,11.279310,1.245233,-0.726331,0.202599,24.580000
16660968.000000,-3.903745,-1.186907,10.248107,1.368049,-0.750583,0.311300,24.670000
16683968.000000,-3.330640,-0.877561,9.492506,1.474457,-0.632709,0.400650,24.480000
16706967.000000,-2.904087,-0.597888,8.839706,1.542661,-0.633772,0.465325,24.530000
16729968.000000,-2.395811,-0.463052,7.878305,1.436763,-0.779304,0.472662,24.620000
16752967.000000,-1.666673,-0.155633,6.822605,1.358814,-0.967069,0.466331,24.530000
16775967.000000,-0.837104,0.383076,5.209755,1.244839,-0.900952,0.458166,24.530000
16798968.000000,-0.197320,0.752430,4.188330,1.062852,-0.657894,0.429083,24.580000
16821968.000000,-0.022427,1.042108,3.852618,0.851859,-0.366364,0.369541,24.580000
16844968.000000,-0.144981,1.136946,3.874761,0.656362,-0.230600,0.329771,24.580000
16867968.000000,-0.341258,1.024366,3.690833,0.483613,-0.127717,0.284885,24.580000
16890968.000000,0.615603,0.738075,3.103869,0.287239,-0.271276,0.227443,24.620000
16913968.000000,0.059034,1.174930,3.060387,-0.010948,-0.003056,0.133721,24.620000
16936967.000000,-0.474250,1.553358,3.593646,-0.285041,0.171055,0.096861,24.530000
16959968.000000,-0.940893,1.642571,4.355276,-0.472088,0.418110,0.108430,24.440000
16982968.000000,-1.024214,1.552178,5.156090,-0.545612,0.646637,0.149215,24.620000
17005968.000000,-1.340874,1.426982,6.141498,-0.717373,0.605901,0.124608,24.620000
17028968.000000,-1.379205,1.089383,6.429201,-0.938254,0.435533,0.092304,24.580000
17051968.000000,-1.583370,0.875584,7.053053,-1.163695,0.430349,0.051152,24.580000
17074967.000000,-1.565452,0.458685,7.759979,-1.411415,0.352757,-0.014424,24.530000
17097968.000000,-1.481494,-0.004765,8.613442,-1.530275,0.318961,-0.092212,24.620000
17120967.000000,-1.679514,-0.021490,9.505174,-1.649705,0.092063,-0.151106,24.530000
17143968.000000,-1.213525,-0.249853,9.771039,-1.824420,-0.191386,-0.170553,24.620000
17166968.000000,-0.780530,-0.719034,9.848972,-1.771777,-0.128110,-0.130277,24.620000
17189968.000000,-1.349032,-0.808624,10.762939,-1.595456,0.003527,-0.030138,24.580000
17212968.000000,-1.628284,-1.053420,11.344922,-1.457296,-0.110654,0.089931,24.580000
17235968.000000,-0.942909,-1.575817,11.030913,-1.483215,-0.242744,0.139965,24.580000
17258968.000000,-0.245222,-2.402016,11.003909,-1.456175,-0.223790,0.114983,24.580000
17281967.000000,-0.341379,-2.625116,11.085407,-1.297655,-0.069312,0.092491,24.530000
17304967.000000,-0.749457,-2.631665,11.476156,-1.133395,0.042926,0.166246,24.530000
17327967.000000,-0.558496,-3.319940,12.021531,-1.016265,0.054046,0.208123,24.530000
17350968.000000,-0.288015,-3.954078,12.079218,-0.827700,0.044605,0.159061,24.620000
17373968.000000,-0.212775,-4.211146,11.988061,-0.583418,0.179885,0.064531,24.580000
17396968.000000,-0.270155,-3.879681,11.992483,-0.406276,0.237525,0.007265,24.480000
17419968.000000,-0.108845,-3.468948,11.414694,-0.227706,0.341345,0.003633,24.580000
17442968.000000,-0.113190,-3.113581,10.710800,-0.008420,0.463255,0.046816,24.580000
17465967.000000,-0.545363,-2.630898,10.738852,0.196222,0.564210,0.098408,24.530000
17488967.000000,-1.076449,-1.989557,11.042879,0.238544,0.339688,0.114204,24.530000
17511967.000000,-1.386992,-1.953886,11.244892,0.134704,0.057426,0.082102,24.530000
17534967.000000,-1.262263,-2.271050,10.980898,0.047785,-0.063704,0.006051,24.530000
17557968.000000,-0.974899,-2.564633,10.588902,0.084325,-0.079270,-0.046974,24.480000
17580968.000000,-0.831217,-2.751424,10.582903,0.162595,0.062948,-0.068487,24.480000
17603968.000000,-0.699376,-3.014819,10.794904,0.291730,0.129056,-0.119244,24.580000
17626968.000000,-0.908456,-3.016517,10.935905,0.331297,0.197111,-0.199622,24.580000
17649967.000000,-1.227995,-3.007366,11.786405,0.381081,0.266138,-0.279811,24.530000
17672967.000000,-1.307765,-3.107791,12.506655,0.525973,0.280651,-0.349905,24.530000
17695968.000000,-1.592650,-2.883003,13.101780,0.738419,0.257908,-0.379953,24.620000
17718967.000000,-1.905093,-2.635609,13.224342,0.964642,0.186537,-0.364976,24.530000
17741968.000000,-1.991314,-2.571912,13.225624,1.092754,0.150851,-0.372488,24.620000
17764968.000000,-1.904424,-2.720063,13.001264,1.246809,0.123008,-0.386244,24.620000
17787968.000000,-1.915980,-2.639139,12.619085,1.453837,0.089086,-0.428122,24.580000
17810968.000000,-2.121757,-2.338677,12.092995,1.642351,-0.037874,-0.474061,24.670000
17833968.000000,-2.279646,-1.698446,11.429950,1.716608,-0.191355,-0.507031,24.620000
17856968.000000,-2.268591,-0.908331,10.963427,1.743737,-0.283095,-0.448515,24.620000
17879967.000000,-1.878063,-0.673273,10.530166,1.797301,-0.348965,-0.374258,24.530000
17902968.000000,-1.472799,-0.750744,9.693536,1.879083,-0.446900,-0.357129,24.620000
17925967.000000,-1.365167,-0.684479,8.475220,1.894974,-0.495867,-0.403564,24.530000
17948968.000000,-1.556351,-0.126347,7.491063,1.747919,-0.535351,-0.496782,24.580000
17971968.000000,-2.126943,0.107719,6.858984,1.274392,-0.675093,-0.763391,24.580000
17994968.000000,-3.177239,0.684752,6.542944,0.812629,-0.734964,-1.006696,24.580000
18017968.000000,-4.582387,1.438268,6.524925,0.656747,-0.624900,-0.938348,24.580000
18040967.000000,-5.364961,1.505027,6.085915,0.478806,-0.664867,-0.739174,24.530000
18063967.000000,-5.791248,1.283406,5.821410,0.239835,-0.559851,-0.559587,24.530000
18086968.000000,-6.074391,1.297595,5.759157,0.105350,-0.412343,-0.364793,24.620000
18109968.000000,-6.315963,1.694690,5.808031,0.073108,-0.178589,-0.102397,24.620000
18132968.000000,-6.331749,1.818238,6.177468,0.146986,0.158288,0.223802,24.670000
18155968.000000,-6.089642,1.700011,6.477187,0.088926,0.296726,0.441901,24.580000
18178968.000000,-5.733589,1.400898,6.547046,-0.075105,0.340946,0.555950,24.580000
18201968.000000,-5.455562,0.981342,6.581975,-0.152120,0.448055,0.672975,24.580000
18224967.000000,-5.046548,0.706563,6.704440,-0.225627,0.561610,0.776488,24.530000
18247967.000000,-4.272042,0.534174,6.875673,-0.402381,0.598388,0.828244,24.530000
18270967.000000,-3.329788,0.377980,6.801289,-0.570758,0.561776,0.869122,24.530000
18293968.000000,-2.173662,0.579882,6.624097,-0.704947,0.573471,0.954561,24.620000
18316968.000000,-1.010598,0.685834,6.905501,-0.987041,0.494318,1.037280,24.670000
18339968.000000,0.310933,0.278809,7.466203,-1.328088,0.434741,1.023640,24.580000
18362968.000000,1.606699,-0.849703,8.061554,-1.593611,0.259953,0.881820,24.580000
18385968.000000,2.529582,-1.413959,8.474229,-1.546373,0.222559,0.760910,24.480000
18408968.000000,3.326024,-1.241087,8.610567,-1.477754,0.248862,0.700455,24.440000
18431968.000000,3.799244,-0.884651,9.093736,-1.413445,0.232014,0.680228,24.620000
18454967.000000,4.250855,-1.271433,9.500321,-1.286290,0.153589,0.625114,24.530000
18477967.000000,4.306660,-1.349824,9.553613,-1.107712,0.154377,0.492557,24.530000
18500968.000000,4.139562,-0.989019,10.160259,-0.983424,0.154771,0.346278,24.620000
18523967.000000,3.916014,-0.613617,11.383582,-0.971279,0.029968,0.233139,24.530000
18546968.000000,3.899239,-1.100916,11.575243,-0.880207,-0.107433,0.161570,24.480000
18569968.000000,3.335852,-1.999566,10.831074,-0.574671,0.133866,0.060785,24.580000
18592967.000000,1.864159,-2.058890,11.463990,-0.326903,0.624515,-0.074608,24.530000
18615968.000000,0.453312,-1.633553,12.985447,-0.183019,0.859840,-0.137304,24.620000
18638968.000000,-0.317112,-2.115884,13.636176,-0.046077,0.777503,-0.163652,24.720000
18661967.000000,-0.917323,-2.532049,13.481541,0.142394,0.761334,-0.281826,24.530000
18684968.000000,-1.527429,-2.530132,12.724223,0.351629,0.733249,-0.425913,24.580000
18707968.000000,-2.257482,-2.064174,11.995564,0.476247,0.719207,-0.537956,24.580000
18730968.000000,-3.202509,-1.206194,11.316234,0.553556,0.667186,-0.553978,24.580000
18753968.000000,-3.665022,-0.907205,10.336570,0.597211,0.646176,-0.496989,24.580000
18776968.000000,-3.901278,-0.587710,9.636737,0.629038,0.705670,-0.453495,24.580000
18799967.000000,-4.109407,-0.167962,9.456821,0.539951,0.625418,-0.436747,24.530000
18822967.000000,-4.263471,0.116911,9.236863,0.465408,0.485291,-0.413374,24.530000
18845967.000000,-4.580503,0.089348,8.366884,0.433137,0.425228,-0.351687,24.530000
18868968.000000,-5.119019,-0.159433,8.201895,0.367001,0.550197,-0.275843,24.440000
18891968.000000,-5.833277,-0.678824,9.459400,0.433933,0.557681,-0.227922,24.580000
18914968.000000,-5.845406,-0.703520,10.378152,0.487399,0.341423,-0.288961,24.580000
18937968.000000,-5.991470,-0.290867,10.487529,0.394132,0.118294,-0.404480,24.480000
18960968.000000,-6.329503,0.390459,10.617217,0.307498,-0.048271,-0.432240,24.580000
18983967.000000,-6.678519,0.886122,11.092061,0.249182,-0.131553,-0.381120,24.530000
19006968.000000,-6.748027,1.108953,11.789483,0.240023,-0.298194,-0.280560,24.620000
19029968.000000,-6.792781,1.225369,12.103194,0.165444,-0.581514,-0.180280,24.620000
19052968.000000,-6.470158,0.713577,12.010049,0.173155,-0.853175,-0.030140,24.620000
19075968.000000,-6.013846,0.077681,11.688477,0.377010,-0.864005,0.134930,24.480000
19098968.000000,-5.565691,-0.505267,11.852691,0.598937,-0.814420,0.232465,24.580000
19121968.000000,-5.196613,-0.876741,11.754798,0.669901,-0.954627,0.196232,24.580000
19144968.000000,-4.992074,-1.172478,11.155852,0.610383,-1.244731,0.088116,24.580000
19167968.000000,-4.754804,-1.225346,10.206378,0.620624,-1.384783,0.039058,24.620000
19190967.000000,-4.136170,-1.056781,9.106642,0.785745,-1.274809,0.069529,24.530000
19213967.000000,-3.481852,-0.692498,8.296773,0.758305,-1.269822,0.044765,24.530000
19236967.000000,-3.054694,-0.510356,7.976839,0.514585,-1.377329,-0.052618,24.530000
19259968.000000,-2.741114,-0.234286,7.431872,0.382725,-1.396082,-0.101309,24.620000
19282968.000000,-2.229325,-0.026250,6.804389,0.381795,-1.235458,-0.065654,24.620000
19305968.000000,-1.593430,0.287767,6.345647,0.401330,-1.040147,-0.007827,24.480000
19328968.000000,-1.095482,0.574776,6.021276,0.251097,-0.992491,-0.008914,24.480000
19351967.000000,-0.556509,0.668281,5.299090,0.130981,-0.923663,0.005543,24.530000
19374967.000000,-0.382022,0.830033,4.612998,0.115923,-0.674249,0.092772,24.530000
19397967.000000,-0.279778,1.165909,4.344951,0.213394,-0.229542,0.251386,24.530000
19420968.000000,-0.528657,1.828847,4.585928,0.122130,0.067812,0.400693,24.620000
19443968.000000,-0.478096,1.795316,4.791417,-0.228503,0.036488,0.530346,24.580000
19466968.000000,0.112185,1.273550,4.539161,-0.408819,0.050827,0.650173,24.580000
19489968.000000,0.422325,1.032668,4.498033,-0.513977,0.352996,0.735087,24.480000
19512968.000000,0.382395,0.807226,5.272469,-0.611556,0.699080,0.807543,24.580000
19535968.000000,0.357430,0.554506,6.509687,-0.920345,0.747123,0.833772,24.440000
19558968.000000,0.959947,-0.561855,7.698296,-1.194740,0.621144,0.796886,24.620000
19581967.000000,1.421206,-1.455035,8.577600,-1.171938,0.663154,0.653443,24.530000
19604967.000000,0.946836,-1.206625,9.917253,-1.090536,0.764160,0.551721,24.530000
19627967.000000,0.659650,-0.962420,10.872079,-1.009836,0.704662,0.555861,24.530000
19650968.000000,0.861058,-1.575317,11.394492,-1.034485,0.609914,0.507930,24.480000
19673968.000000,1.021761,-2.166766,12.035698,-0.976810,0.617539,0.323965,24.580000
19696968.000000,0.702113,-1.972491,12.366302,-0.827973,0.591352,0.151983,24.580000
19719968.000000,0.517289,-1.750353,12.471603,-0.733554,0.493259,0.055991,24.580000
19742967.000000,0.599877,-1.999284,12.264254,-0.661344,0.399212,-0.042004,24.530000
19765967.000000,0.361171,-1.738749,12.800580,-0.485240,-0.017812,-0.116002,24.530000
19788968.000000,0.246818,-1.573482,12.713742,-0.392187,-0.131323,-0.218001,24.620000
19811967.000000,-0.065358,-1.490849,12.575324,-0.225661,-0.048079,-0.249001,24.530000
19834968.000000,-0.466447,-1.489532,12.296114,-0.032398,0.133543,-0.264500,24.580000
19857968.000000,-1.156991,-1.408873,12.206510,0.084233,0.244354,-0.307250,24.390000
19880968.000000,-1.292263,-1.028544,12.016707,0.127549,0.089759,-0.338625,24.580000
19903968.000000,-1.599899,-0.878380,11.396806,0.089207,-0.127538,-0.334313,24.480000
19926967.000000,-1.498717,-0.848297,10.871856,0.170036,-0.196186,-0.282156,24.530000
19949967.000000,-1.233126,-0.828256,10.419380,0.300451,-0.080511,-0.226078,24.530000
19972967.000000,-1.275330,-0.733236,10.553143,0.330658,-0.027673,-0.183039,24.530000
19995967.000000,-0.971433,-0.875725,10.520024,0.265761,-0.076254,-0.201520,24.530000
20018967.000000,-0.824484,-0.911970,10.528464,0.258313,-0.075544,-0.260760,24.530000
20041967.000000,-0.921009,-0.890093,10.722685,0.284589,-0.050190,-0.300380,24.530000
20064968.000000,-1.199272,-0.874154,11.014795,0.322727,-0.047512,-0.290190,24.580000
20087968.000000,-1.368404,-1.001184,11.035850,0.331796,-0.141174,-0.250095,24.580000
20110967.000000,-1.212969,-1.449700,10.701377,0.351331,-0.233004,-0.230047,24.530000
20133967.000000,-1.330252,-1.693957,10.304141,0.436098,-0.228920,-0.275024,24.530000
20156967.000000,-2.073894,-1.416086,10.135523,0.443481,-0.221877,-0.292512,24.530000
20179967.000000,-2.295714,-1.167151,9.391214,0.337173,-0.323356,-0.291256,24.530000
20202968.000000,-2.316625,-1.207683,8.794060,0.204019,-0.374096,-0.290628,24.580000
20225968.000000,-2.382080,-1.272949,8.550482,0.177442,-0.349465,-0.280314,24.670000
20248968.000000,-2.564807,-1.230582,8.478694,0.174154,-0.292150,-0.285157,24.580000
20271968.000000,-2.581171,-1.014398,8.422799,0.152509,-0.258493,-0.322578,24.480000
20294967.000000,-2.689353,-0.551307,8.044852,0.131687,-0.171664,-0.296289,24.530000
20317967.000000,-2.793444,-0.364761,7.865879,0.131276,-0.033249,-0.183145,24.530000
20340967.000000,-2.675490,-0.391488,7.656392,0.156071,0.070958,-0.036572,24.530000
20363967.000000,-2.351512,-0.464851,7.571648,0.103468,0.158061,0.031714,24.530000
20386967.000000,-2.064524,-0.276533,7.469277,0.002166,0.171613,0.060857,24.530000
20409968.000000,-1.791029,-0.027374,7.393091,-0.113484,0.233389,0.135428,24.670000
20432968.000000,-1.524282,-0.157795,7.849998,-0.201310,0.359277,0.232714,24.480000
20455968.000000,-1.380909,-0.388005,8.143451,-0.285222,0.442221,0.281357,24.580000
20478968.000000,-1.029222,-0.448110,8.200178,-0.377179,0.508693,0.305679,24.580000
20501968.000000,-1.023378,-0.558162,8.828542,-0.418157,0.511929,0.387839,24.620000
20524967.000000,-0.985457,-0.868189,9.362723,-0.458646,0.403547,0.478920,24.530000
20547968.000000,-0.641496,-1.333202,9.614814,-0.498890,0.314356,0.509460,24.440000
20570968.000000,-0.359515,-1.575708,10.060860,-0.484013,0.229761,0.469730,24.620000
20593968.000000,-0.083525,-1.546962,10.188882,-0.441574,0.202463,0.384865,24.580000
20616968.000000,0.119470,-1.367588,10.337894,-0.400354,0.208814,0.297432,24.580000
20639968.000000,-0.009033,-0.862902,10.907399,-0.319745,0.221989,0.238716,24.480000
20662968.000000,-0.098284,-0.350558,11.252152,-0.289440,0.163577,0.234358,24.670000
20685968.000000,0.132091,-0.384387,11.364529,-0.309287,0.094371,0.237179,24.620000
20708967.000000,0.297278,-0.811301,11.650717,-0.244211,0.109768,0.208590,24.530000
20731968.000000,0.049871,-0.924758,11.868811,-0.071673,0.087467,0.204295,24.620000
20754967.000000,-0.083832,-1.131486,11.662858,0.014596,0.056316,0.202147,24.530000
20777968.000000,-0.050683,-1.379851,11.429881,0.052730,-0.014260,0.171074,24.620000
20800968.000000,-0.004109,-1.474033,11.028393,0.081798,-0.064547,0.120537,24.580000
20823968.000000,-0.035822,-1.376124,10.627649,0.076331,-0.084691,0.075268,24.580000
20846968.000000,-0.056679,-1.332169,10.152277,0.058598,-0.089763,0.062634,24.580000
20869967.000000,-0.157107,-1.705192,10.069591,-0.010268,-0.062299,0.066317,24.530000
20892968.000000,-0.152321,-2.501704,10.213248,-0.029702,-0.033567,-0.001841,24.620000
20915968.000000,-0.464928,-2.929959,10.285077,0.120582,0.075799,-0.140921,24.620000
20938968.000000,-1.251231,-2.434087,10.490991,0.330723,0.170482,-0.245460,24.620000
20961968.000000,-1.794383,-1.876151,10.188948,0.405794,0.182823,-0.317730,24.670000
20984968.000000,-2.285959,-1.527183,10.077926,0.358330,0.148994,-0.398865,24.670000
21007968.000000,-2.556747,-1.252699,10.022416,0.339597,0.077080,-0.489433,24.480000
21030968.000000,-2.687141,-0.915457,9.734660,0.320231,0.006122,-0.544716,24.580000
21053968.000000,-2.992338,-0.646836,9.720783,0.340548,-0.049356,-0.512358,24.440000
21076967.000000,-3.184937,-0.772526,9.573844,0.360707,-0.067096,-0.446179,24.530000
21099968.000000,-3.086236,-0.820370,9.420374,0.330786,-0.035965,-0.458090,24.620000
21122967.000000,-3.251885,-0.684293,9.463640,0.240825,-0.040400,-0.509045,24.530000
21145968.000000,-3.599710,-0.426254,9.705272,0.180845,-0.157618,-0.499522,24.480000
21168968.000000,-3.668623,-0.242234,9.521089,0.190855,-0.326226,-0.399761,24.580000
21191968.000000,-3.383079,-0.525225,9.628997,0.160860,-0.450531,-0.329881,24.480000
21214968.000000,-2.985307,-0.776720,9.902951,0.100863,-0.512683,-0.349940,24.670000
21237968.000000,-2.611421,-0.857467,9.804928,0.010864,-0.628759,-0.379970,24.580000
21260967.000000,-2.324478,-1.092841,9.765916,0.020864,-0.631797,-0.349985,24.530000
21283967.000000,-1.916006,-1.245528,9.411411,0.150865,-0.548316,-0.304993,24.530000
21306967.000000,-1.686771,-1.106872,9.079158,0.235865,-0.491575,-0.277496,24.530000
21329967.000000,-1.722153,-0.597543,8.903031,0.233365,-0.463205,-0.223748,24.530000
21352968.000000,-1.544844,-0.212879,8.369968,0.147115,-0.469020,-0.136874,24.580000
21375968.000000,-1.446189,-0.025547,7.963437,0.193990,-0.291928,0.036563,24.480000
21398968.000000,-1.221862,0.188119,7.715171,0.352427,-0.073381,0.228281,24.580000
21421968.000000,-1.119699,0.804952,7.556038,0.481646,0.160892,0.449141,24.480000
21444967.000000,-0.838617,1.138368,7.206471,0.491256,0.353028,0.704570,24.530000
21467967.000000,-0.368076,0.755077,7.116688,0.431060,0.529097,0.872285,24.530000
21490967.000000,-0.072805,0.203431,7.856797,0.235963,0.552131,0.871143,24.530000
21513967.000000,0.279830,-0.152392,8.246851,0.003414,0.413648,0.730571,24.530000
21536968.000000,0.631147,-0.230304,8.481878,-0.277861,0.259406,0.600286,24.620000
21559968.000000,0.986806,-0.474259,8.704391,-0.378498,0.267286,0.555143,24.480000
21582968.000000,1.579636,-0.811237,9.345648,-0.488816,0.226225,0.537571,24.580000
21605968.000000,2.591050,-1.644726,9.861277,-0.803976,-0.049305,0.453786,24.480000
21628967.000000,3.521758,-2.471471,9.779091,-1.066555,-0.297070,0.366893,24.530000
21651968.000000,3.602111,-3.009843,9.997998,-0.837845,0.019048,0.398446,24.720000
21674967.000000,1.922288,-2.204029,11.682451,-0.403490,0.492106,0.589223,24.530000
21697968.000000,0.287377,-1.206122,12.664678,-0.241313,0.393636,0.749612,24.620000
21720968.000000,-0.005079,-1.087168,12.210792,-0.420224,0.274400,0.694806,24.580000
21743968.000000,-0.376307,-0.902692,11.938848,-0.514679,0.244783,0.482403,24.580000
21766968.000000,-1.526921,0.264547,12.137877,-0.336907,0.259974,0.401201,24.580000
21789968.000000,-1.792228,0.478166,11.767391,-0.078021,0.087569,0.470601,24.480000
21812967.000000,-0.904882,-0.005025,10.602148,0.386422,0.456367,0.425300,24.530000
21835967.000000,-0.931208,-0.141620,9.914526,0.608643,0.545766,0.342650,24.530000
21858967.000000,-1.229372,-0.739917,10.025716,0.424754,0.325466,0.101325,24.530000
21881967.000000,-1.968453,-0.264066,10.141310,0.222810,-0.084685,-0.134337,24.530000
21904968.000000,-2.127994,0.063859,9.889108,0.011837,-0.464760,-0.217169,24.580000
21927968.000000,-1.942765,-0.107178,9.208006,-0.008649,-0.289797,-0.168584,24.480000
21950968.000000,-2.000150,-0.737696,9.537456,0.176108,0.012684,-0.074292,24.580000
21973968.000000,-2.983842,-0.707956,11.277180,-0.251513,0.053924,-0.222146,24.480000
21996967.000000,-2.490689,-0.678085,10.097043,-0.245324,-0.125455,-0.266073,24.530000
22019967.000000,-2.874112,-0.443150,10.031974,0.047770,0.069855,-0.238037,24.530000
22042967.000000,-2.700823,-0.615683,9.379439,0.254318,0.387510,-0.159018,24.530000
22065967.000000,-3.309179,-0.501949,9.683172,0.557591,0.771337,-0.084509,24.530000
22088967.000000,-3.348357,-0.610082,9.880039,0.799228,0.563251,0.097745,24.530000
22111968.000000,-3.107946,-0.339148,9.028472,0.820047,0.544208,0.113873,24.580000
22134968.000000,-3.607741,0.086318,9.007688,0.845456,0.539687,0.136936,24.480000
22157968.000000,-4.087638,0.604052,9.092297,1.043160,0.517426,0.318468,24.580000
22180968.000000,-3.707586,-1.382082,9.304601,0.757013,0.461295,0.284234,24.580000
22203967.000000,-3.412561,-0.700148,8.945753,0.458939,0.173230,0.002117,24.530000
22226967.000000,-4.830048,1.770818,8.761329,0.449902,-0.050802,0.121059,24.530000
22249967.000000,-4.608791,1.941302,8.719117,0.305383,-0.097819,0.430529,24.530000
22272967.000000,-3.733163,1.186543,9.213011,0.178124,-0.236327,0.470265,24.530000
22295967.000000,-3.545349,1.344164,9.299958,0.194495,-0.135581,0.480132,24.530000
22318968.000000,-3.381442,1.222975,9.618431,0.332680,-0.005208,0.515066,24.480000
22341968.000000,-2.919489,1.292380,9.367668,0.416772,0.039979,0.562533,24.580000
22364968.000000,-2.548512,0.867082,9.447287,0.433819,-0.022428,0.561267,24.580000
22387968.000000,-1.703023,0.484434,9.802096,0.372342,-0.013632,0.355633,24.440000
22410967.000000,-1.460279,0.968109,9.349500,0.436603,-0.099233,0.282817,24.530000
22433968.000000,-1.183907,1.144947,9.173203,0.498734,0.002966,0.211408,24.440000
22456968.000000,-1.125721,1.363366,9.250054,0.649800,0.014065,0.225704,24.440000
22479968.000000,-0.791628,1.567576,8.773479,0.775332,0.134615,0.237852,24.480000
22502968.000000,-0.549582,1.899680,7.515192,0.838099,0.289890,0.168926,24.580000
22525968.000000,-0.308558,1.720733,6.861049,0.624482,0.182528,-0.015537,24.580000
22548968.000000,-0.698047,1.746259,6.813977,0.077673,-0.151154,-0.257768,24.580000
22571967.000000,-0.342791,1.054022,7.685441,-0.190731,-0.532994,-0.368884,24.530000
22594967.000000,0.264837,0.797903,7.666173,-0.339933,-0.358915,-0.159442,24.530000
22617968.000000,-0.871349,0.844844,7.401539,-0.499534,-0.271875,-0.039721,24.620000
22640968.000000,-1.494442,0.583315,7.774222,-0.439334,-0.488355,0.095139,24.620000
22663968.000000,-1.630988,0.547550,8.315563,-0.474235,-0.581595,0.287570,24.580000
22686968.000000,-0.684262,0.664667,10.441234,-0.106685,-0.738215,0.178785,24.480000
22709968.000000,-0.355898,0.823226,8.939070,-0.037910,-1.006525,-0.540608,24.580000
22732968.000000,-2.951717,2.017506,9.047987,-0.483522,-1.610680,-0.550304,24.580000
22755968.000000,-0.374626,-1.800355,15.917446,-0.351329,-2.922757,-0.225152,24.440000
22778968.000000,1.198920,1.020715,14.862176,0.974768,-2.888796,-0.872576,24.620000
22801967.000000,-1.949308,1.326250,11.049540,1.432817,-2.196816,-0.991288,24.530000
22824967.000000,-0.353421,2.179018,8.668223,0.711841,-1.500825,-0.225644,24.530000
22847967.000000,1.689522,2.225401,9.492564,-0.133647,-0.877830,0.027178,24.530000
22870968.000000,2.260993,2.188593,10.754734,-0.056391,-0.526333,0.018589,24.480000
22893968.000000,1.481729,2.535189,10.005820,0.337237,-0.415584,-0.215705,24.480000
22916968.000000,0.932097,2.698487,7.946362,0.384051,-0.500209,-0.252853,24.580000
22939968.000000,1.017281,2.875136,7.421634,-0.327542,-0.377522,-0.231426,24.580000
22962968.000000,1.484873,2.808461,8.289269,-0.818339,-0.251179,-0.175713,24.620000
22985968.000000,1.823669,2.565123,9.128087,-0.893737,-0.173007,-0.122857,24.620000
23008967.000000,1.978067,2.188454,9.482496,-0.841436,-0.028921,-0.041428,24.530000
23031967.000000,2.415266,1.955119,9.644701,-0.700285,0.093122,0.034286,24.530000
23054968.000000,2.433866,1.483452,10.105803,-0.574710,0.229144,0.032143,24.620000
23077968.000000,2.318165,1.102619,10.411354,-0.451923,0.247154,0.001071,24.480000
23100968.000000,2.145315,0.897202,10.509129,-0.335529,0.161160,-0.084464,24.580000
23123968.000000,1.273890,0.749493,10.463017,-0.142332,0.148162,-0.162232,24.580000
23146968.000000,0.813178,0.760639,9.804961,-0.060733,0.176664,-0.061116,24.720000
23169968.000000,1.002821,0.931212,9.575933,-0.174934,0.220914,0.044442,24.620000
23192968.000000,1.327643,1.001499,9.946419,-0.197035,0.213040,0.057221,24.620000
23215968.000000,1.480054,1.041642,9.851662,-0.113085,0.214102,0.008610,24.440000
