Time (us),AccelX (m/s^2),AccelY (m/s^2),AccelZ (m/s^2),GyroX (rad/s),GyroY (rad/s),GyroZ (rad/s),Temp (C)
1871953.0000,0.0123,0.0269,9.6719,0.0010,0.0040,-0.0000,24.9100
1894953.0000,-0.0277,-0.0131,9.8019,0.0010,0.0040,-0.0000,24.8100
1917953.0000,0.0023,0.0169,9.8319,0.0010,0.0040,-0.0000,24.7700
1940953.0000,-0.0177,0.0669,9.8419,0.0010,0.0040,-0.0000,24.8600
1963953.0000,0.0023,-0.0531,9.7719,0.0010,-0.0060,-0.0000,24.8600
1986953.0000,-0.0277,-0.0231,9.7919,0.0010,-0.0060,-0.0000,24.8600
2009953.0000,-0.0077,-0.0131,9.8719,0.0010,0.0040,-0.0000,24.8100
2032953.0000,-0.0077,0.0369,9.8519,0.0010,-0.0060,-0.0000,24.8100
2055953.0000,0.0123,-0.0531,9.8719,0.0010,0.0040,-0.0000,24.9100
2078953.0000,0.0023,-0.0731,9.8019,0.0010,-0.0060,-0.0000,24.8100
2101953.0000,0.0423,-0.0231,9.8119,0.0010,-0.0060,-0.0000,24.8100
2124953.0000,0.0423,-0.0131,9.6919,0.0010,-0.0060,-0.0000,24.8600
2147953.0000,-0.0077,-0.0131,9.8519,-0.0090,0.0040,-0.0000,24.8600
2170953.0000,0.0623,-0.0231,9.7719,0.0010,0.0040,-0.0000,24.8600
2193953.0000,-0.0177,0.0869,9.8319,-0.0090,-0.0060,-0.0000,24.7700
2216953.0000,0.0723,-0.0231,9.7419,0.0010,0.0040,-0.0000,24.8100
2239953.0000,-0.0277,0.0369,9.7819,0.0010,0.0040,-0.0000,24.8100
2262953.0000,0.0223,-0.0331,9.8119,0.0010,0.0040,-0.0000,24.7200
2285953.0000,-0.0177,0.0069,9.7619,0.0010,0.0040,-0.0000,24.8100
2308953.0000,0.0023,-0.0131,9.8919,-0.0090,0.0040,-0.0000,24.8600
2331953.0000,0.0023,-0.0031,9.7719,0.0010,0.0040,-0.0000,24.7700
2354953.0000,0.0023,0.0469,9.8719,-0.0090,0.0040,-0.0000,24.8600
2377953.0000,0.0323,0.0169,9.8319,-0.0090,0.0040,-0.0000,24.8600
2400953.0000,0.0123,-0.0331,9.8419,0.0010,-0.0060,-0.0000,24.8100
2423953.0000,-0.0377,0.0069,9.8719,-0.0090,0.0040,-0.0000,24.8100
2446953.0000,0.0223,-0.0131,9.8219,-0.0090,0.0040,-0.0000,24.9100
2469953.0000,0.0423,0.0269,9.8919,0.0010,0.0040,-0.0000,24.8100
2492953.0000,0.0423,0.0269,9.8419,0.0010,0.0040,-0.0000,24.8600
2515953.0000,-0.0377,-0.0331,9.7519,0.0010,0.0040,-0.0000,24.8600
2538953.0000,-0.0077,0.0269,9.7719,0.0010,-0.0060,-0.0000,24.8600
2561953.0000,-0.0277,-0.0531,9.8019,0.0010,0.0040,-0.0000,24.8600
2584953.0000,0.0123,0.0069,9.8219,0.0010,0.0040,-0.0000,24.8600
2607953.0000,-0.0077,-0.0531,9.7219,0.0010,-0.0060,-0.0000,24.9500
2630953.0000,0.0323,0.0269,9.8219,-0.0090,-0.0060,-0.0000,24.9100
2653953.0000,0.0123,-0.0131,9.8419,0.0010,0.0040,-0.0000,24.8100
2676953.0000,0.0123,-0.0431,9.7719,0.0010,0.0040,-0.0000,24.8600
2699953.0000,-0.0177,0.0369,9.8119,0.0010,0.0040,-0.0000,24.8600
2722953.0000,-0.0177,-0.0331,9.8119,0.0010,-0.0060,-0.0000,24.9500
2745953.0000,0.0523,0.0069,9.7619,0.0010,0.0040,-0.0000,24.8600
2768953.0000,0.0423,-0.0031,9.7419,-0.0090,0.0040,-0.0000,24.7700
2791953.0000,-0.0377,0.0069,9.6919,0.0010,0.0040,-0.0000,24.8100
2814953.0000,0.0023,-0.0331,9.8319,0.0010,-0.0060,-0.0000,24.9100
2837953.0000,-0.0077,-0.0531,9.7919,0.0010,0.0040,-0.0000,24.8100
2860953.0000,-0.0177,-0.0131,9.8019,0.0010,0.0040,-0.0000,24.8100
2883953.0000,-0.0377,0.0669,9.8319,0.0010,-0.0060,-0.0000,24.7700
2906953.0000,0.0023,-0.0131,9.7919,0.0010,0.0040,-0.0000,24.8600
2929953.0000,-0.0177,-0.0331,9.7119,0.0010,0.0040,-0.0000,24.8600
2952953.0000,0.0123,0.0169,9.8319,0.0010,-0.0060,-0.0000,24.8600
2975953.0000,0.0023,-0.0131,9.7919,0.0010,-0.0060,-0.0000,24.8100
2998953.0000,-0.0177,0.0169,9.7219,0.0010,-0.0060,-0.0000,24.9100
3021953.0000,-0.0677,0.0169,9.8119,0.0010,-0.0060,-0.0000,24.9100
3044953.0000,-0.0477,-0.0131,9.9019,0.0010,-0.0060,-0.0000,24.9100
3067953.0000,0.0323,0.0369,9.7919,0.0010,-0.0060,-0.0000,24.7700
3090953.0000,-0.0077,-0.0031,9.7919,0.0010,-0.0060,-0.0000,24.8600
3113953.0000,-0.0177,0.0769,9.8419,0.0010,-0.0060,-0.0000,24.8600
3136953.0000,-0.0377,0.0069,9.8419,0.0010,-0.0060,-0.0000,24.8600
3159953.0000,-0.1077,0.0169,9.6919,0.0010,-0.0060,-0.0000,24.9100
3182953.0000,-0.0477,-0.0031,9.7819,0.0010,0.0040,-0.0000,24.8100
3205953.0000,0.0323,-0.0931,9.7919,0.0010,-0.0060,-0.0000,24.8100
3228953.0000,0.0623,0.0569,9.8919,0.0010,-0.0060,-0.0000,24.9100
3251953.0000,-0.0777,0.0069,9.7319,0.0010,-0.0060,-0.0000,24.8600
3274953.0000,-0.0177,-0.0031,9.7819,0.0010,-0.0060,-0.0000,24.7700
3297953.0000,-0.0077,-0.0231,9.8419,0.0010,0.0040,-0.0000,24.8600
3320953.0000,0.0223,0.0369,9.9319,0.0010,0.0040,-0.0000,24.8600
3343953.0000,0.0023,-0.0431,9.7919,0.0010,-0.0060,-0.0000,24.8600
3366953.0000,0.0223,-0.0231,9.8719,0.0010,-0.0060,-0.0000,24.7700
3389953.0000,-0.0377,-0.0031,9.7419,0.0010,0.0040,-0.0000,24.7200
3412953.0000,0.0323,0.0169,9.8219,0.0010,0.0040,-0.0000,24.9100
3435953.0000,0.0323,-0.0531,9.8019,0.0010,-0.0060,-0.0000,24.8600
3458953.0000,0.0623,0.0169,9.7719,0.0010,-0.0060,-0.0000,24.9500
3481953.0000,0.0123,0.0069,9.8019,0.0010,0.0040,-0.0000,24.8600
3504953.0000,0.0023,0.0569,9.8619,0.0010,-0.0060,-0.0000,24.8600
3527953.0000,0.0723,-0.0331,9.7419,0.0010,0.0040,-0.0000,24.8600
3550953.0000,0.0323,0.0469,9.7219,0.0010,0.0040,-0.0000,24.8100
3573953.0000,0.0723,-0.0131,9.8019,0.0010,0.0040,-0.0000,24.8100
3596953.0000,0.0323,-0.0331,9.8119,0.0010,0.0040,-0.0000,24.9100
3619953.0000,0.0523,0.0469,9.8919,0.0010,-0.0060,-0.0000,24.8100
3642953.0000,-0.0577,-0.0931,9.8019,0.0010,0.0040,-0.0000,24.8600
3665953.0000,0.0323,0.0469,9.7819,0.0010,-0.0060,-0.0000,24.8600
3688953.0000,0.0323,-0.0631,9.8019,0.0010,0.0040,-0.0000,24.8600
3711953.0000,0.0023,0.0169,9.8319,0.0010,0.0040,-0.0000,24.7700
3734953.0000,0.0223,-0.0231,9.8119,0.0010,-0.0060,-0.0000,24.9100
3757953.0000,0.0323,0.0269,9.7819,0.0010,-0.0060,-0.0000,24.8100
3780953.0000,-0.0377,0.0269,9.7519,0.0010,0.0040,-0.0000,24.8100
3803953.0000,-0.1377,-0.0331,9.7719,0.0010,-0.0060,-0.0000,24.8100
3826953.0000,0.0623,0.0169,9.8119,0.0010,0.0040,-0.0000,24.8600
3849953.0000,0.0923,-0.0731,9.7119,0.0010,0.0040,-0.0000,24.8600
3872953.0000,-0.0477,0.0469,9.8719,0.0010,0.0040,-0.0000,24.7700
3895953.0000,-0.0477,-0.0031,9.8319,0.0010,-0.0060,-0.0000,24.8600
3918953.0000,0.0223,-0.0031,9.8419,0.0010,0.0040,-0.0000,24.8100
3941953.0000,0.0623,0.0569,9.8219,0.0010,0.0040,-0.0000,24.9100
3964953.0000,0.0223,-0.0531,9.7619,0.0010,-0.0060,-0.0000,24.8100
3987953.0000,-0.0177,0.0469,9.8719,0.0010,-0.0060,-0.0000,24.9100
4010953.0000,0.0523,0.0769,9.7719,0.0010,0.0040,-0.0000,24.7700
4033953.0000,0.0323,-0.0331,9.7719,0.0010,0.0040,-0.0000,24.8600
4056953.0000,0.0623,0.0069,9.6419,0.0010,-0.0060,-0.0000,24.8600
4079953.0000,0.0323,0.0169,9.8519,0.0010,-0.0060,-0.0000,24.7700
4102953.0000,0.0123,0.0369,9.9519,-0.0090,0.0040,-0.0000,24.8600
4125953.0000,-0.0377,-0.0731,9.7119,-0.0090,0.0040,-0.0000,24.8600
4148953.0000,0.0123,-0.0131,9.8119,0.0010,0.0040,-0.0000,24.8100
4171953.0000,-0.0677,0.0069,9.6719,-0.0090,0.0040,-0.0000,24.9100
4194953.0000,0.0023,0.0169,9.7219,0.0010,0.0040,-0.0000,24.9100
4217953.0000,-0.0177,-0.0131,9.7219,0.0010,0.0040,-0.0000,24.8600
4240953.0000,-0.0077,0.0269,9.8519,0.0010,0.0040,-0.0000,24.8600
4263953.0000,-0.0377,0.0669,9.8619,0.0010,0.0040,-0.0000,24.8600
4286953.0000,0.0223,-0.0231,9.8119,0.0010,0.0040,-0.0000,24.8600
4309953.0000,0.0123,0.0269,9.8019,0.0010,-0.0060,-0.0000,24.8100
4332953.0000,-0.0277,0.0569,9.7419,0.0010,0.0040,-0.0000,24.7200
4355953.0000,-0.0377,0.0569,9.7719,0.0010,0.0040,-0.0000,24.8100
4378953.0000,0.0023,0.0469,9.8719,-0.0090,0.0040,-0.0000,24.8100
4401953.0000,-0.0077,0.0369,9.8319,0.0010,0.0040,-0.0000,24.9500
4424953.0000,-0.0277,-0.0231,9.8019,0.0010,0.0040,-0.0000,24.8600
4447953.0000,0.0023,-0.0231,9.7719,0.0010,0.0040,-0.0000,24.8600
4470953.0000,0.0523,0.0169,9.8019,0.0010,-0.0060,-0.0000,24.7700
4493953.0000,-0.0677,-0.0131,9.7719,0.0010,-0.0060,-0.0000,24.8100
4516953.0000,0.0723,0.0269,9.7919,0.0010,0.0040,-0.0000,24.9100
4539953.0000,-0.0277,0.0469,9.7819,0.0010,-0.0060,-0.0000,24.8100
4562953.0000,0.0823,-0.0431,9.8219,0.0010,0.0040,-0.0000,24.9100
4585953.0000,0.0223,0.0169,9.8119,0.0010,0.0040,-0.0000,24.7700
4608953.0000,-0.0377,-0.0331,9.7619,0.0010,-0.0060,-0.0000,24.8600
4631953.0000,0.0323,-0.0631,9.7919,0.0010,-0.0060,-0.0000,24.8600
4654953.0000,-0.0177,-0.0531,9.7319,0.0010,0.0040,-0.0000,24.8600
4677953.0000,-0.0177,-0.0031,9.7719,0.0010,0.0040,-0.0000,24.8100
4700953.0000,-0.0077,0.0769,9.7719,-0.0090,0.0040,-0.0000,24.9100
4723953.0000,0.0123,0.0369,9.7919,0.0010,0.0040,-0.0000,24.8100
4746953.0000,0.0823,0.0169,9.7819,0.0010,0.0040,-0.0000,24.9100
4769953.0000,0.0023,0.0569,9.8719,-0.0090,0.0040,-0.0000,24.8600
4792953.0000,-0.0377,-0.0331,9.8019,0.0010,-0.0060,-0.0000,24.7700
4815953.0000,0.0523,0.0169,9.7519,0.0010,0.0040,-0.0000,24.8600
4838953.0000,0.0023,-0.0931,9.7519,0.0010,0.0040,-0.0000,24.8600
4861953.0000,0.0823,0.0069,9.8619,0.0010,0.0040,-0.0000,24.8600
4884953.0000,-0.0077,-0.0131,9.7619,0.0010,0.0040,-0.0000,24.8600
4907953.0000,0.0323,0.0269,9.9219,0.0010,0.0040,-0.0000,24.7200
4930953.0000,0.0623,0.0169,9.7419,0.0010,0.0040,-0.0000,24.9100
4953953.0000,0.0023,0.0269,9.8319,0.0010,0.0040,-0.0000,24.9100
4976953.0000,-0.0177,0.0269,9.7819,0.0010,0.0040,-0.0000,24.8600
4999953.0000,0.0123,-0.0331,9.7619,-0.0090,0.0040,-0.0000,24.8600
5022953.0000,0.0323,0.0769,9.8519,-0.0090,0.0040,-0.0000,24.8600
5045953.0000,0.0023,0.0069,9.7319,-0.0090,0.0040,-0.0000,24.8600
5068953.0000,0.0023,0.0669,9.8319,-0.0090,-0.0060,-0.0000,24.8100
5091953.0000,-0.0177,0.0169,9.8119,-0.0090,0.0040,-0.0000,24.8100
5114953.0000,0.0223,-0.0031,9.7919,-0.0090,0.0040,-0.0000,24.8100
5137953.0000,-0.0377,-0.0031,9.7519,0.0010,-0.0060,-0.0000,24.9100
5160953.0000,-0.0577,-0.2131,9.2619,0.0010,0.0040,-0.0000,24.9500
5183953.0000,0.0123,-0.0031,9.8919,-0.0190,0.0140,-0.0000,24.8600
5206953.0000,0.0323,0.0369,9.8419,0.0010,0.0040,-0.0000,24.8600
5229953.0000,0.0323,0.0569,9.9119,-0.0090,0.0040,-0.0000,24.7700
5252953.0000,-0.0377,-0.0431,9.7919,-0.0090,0.0040,-0.0000,24.8100
5275953.0000,0.0023,0.0169,9.8519,-0.0090,0.0040,-0.0000,24.8100
5298953.0000,-0.0577,-0.0231,9.8219,0.0010,-0.0060,-0.0000,24.8100
5321953.0000,-0.0477,-0.0231,9.8019,0.0010,0.0040,-0.0000,24.8100
5344953.0000,0.0123,-0.0431,9.8919,0.0010,0.0040,-0.0000,24.8600
5367953.0000,0.0623,-0.0131,9.7719,0.0010,-0.0060,-0.0000,24.8600
5390953.0000,0.0723,0.0169,9.9519,0.0010,0.0040,-0.0000,24.8600
5413953.0000,0.0323,0.0169,9.8919,0.0010,0.0040,-0.0000,24.9500
5436953.0000,0.0223,-0.0031,9.8719,0.0010,-0.0060,-0.0000,24.8100
5459953.0000,0.0523,0.0169,9.7019,0.0010,0.0040,-0.0000,24.8100
5482953.0000,0.0323,0.0469,9.8619,0.0010,0.0040,-0.0000,24.8100
5505953.0000,-0.0177,0.0269,9.8019,0.0010,0.0040,-0.0000,24.9100
5528953.0000,0.0323,-0.0331,9.8319,0.0010,0.0040,-0.0000,24.8600
5551953.0000,0.0323,-0.0031,9.8019,-0.0090,-0.0060,-0.0000,24.8600
5574953.0000,-0.0377,-0.0231,9.7819,0.0010,-0.0060,-0.0000,24.8600
5597953.0000,0.0023,-0.0231,9.7819,0.0010,-0.0060,-0.0000,24.9500
5620953.0000,0.0523,-0.0131,9.8119,0.0010,-0.0060,-0.0000,24.8600
5643953.0000,0.0323,-0.0031,9.7519,0.0010,0.0040,-0.0000,24.8600
5666953.0000,0.0423,-0.0231,9.8919,0.0010,0.0040,-0.0000,24.9100
5689953.0000,0.0123,-0.0031,9.7819,0.0010,0.0040,-0.0000,24.8100
5712953.0000,0.0423,-0.0031,9.8119,0.0010,0.0040,-0.0000,24.9100
5735953.0000,0.0023,0.0469,9.7719,0.0010,-0.0060,-0.0000,24.8600
5758953.0000,-0.0177,0.0069,9.9019,0.0010,-0.0060,-0.0000,24.7700
5781953.0000,-0.0277,-0.0031,9.8319,0.0010,0.0040,-0.0000,24.8600
5804953.0000,-0.0077,-0.0231,9.8219,-0.0090,0.0040,-0.0000,24.9500
5827953.0000,-0.0277,-0.0631,9.8319,0.0010,-0.0060,-0.0000,24.9100
5850953.0000,-0.0077,-0.0331,9.9419,0.0010,0.0040,-0.0000,24.9100
5873953.0000,0.0323,-0.0331,9.8419,0.0010,0.0040,-0.0000,24.8100
5896953.0000,-0.0177,-0.0031,9.7619,0.0010,-0.0060,-0.0000,24.8100
5919953.0000,0.0123,-0.0231,9.7419,-0.0090,-0.0060,-0.0000,24.8600
5942953.0000,-0.0077,-0.0631,9.8819,0.0010,-0.0060,-0.0000,24.8600
5965953.0000,0.0223,0.0669,9.8819,0.0010,0.0040,-0.0000,24.8600
5988953.0000,-0.0277,-0.0031,9.7919,0.0010,0.0040,-0.0000,24.8600
6011953.0000,-0.0077,-0.0231,9.7719,0.0010,0.0040,-0.0000,24.9100
6034953.0000,0.0223,0.0169,9.7919,0.0010,0.0040,-0.0000,24.9100
6057953.0000,-0.0677,-0.0531,9.8219,0.0010,0.0040,-0.0000,24.9100
6080953.0000,0.0023,-0.0331,9.8419,-0.0090,-0.0060,-0.0000,24.8100
6103953.0000,-0.0577,0.0369,9.7919,0.0010,0.0040,-0.0000,24.9500
6126953.0000,0.0123,0.0069,9.8519,0.0010,-0.0060,-0.0000,24.7700
6149953.0000,-0.0277,0.0169,9.8819,0.0010,-0.0060,-0.0000,24.8600
6172953.0000,0.0023,0.0869,9.7719,0.0010,0.0040,-0.0000,24.8600
6195953.0000,0.0223,-0.0231,9.7219,0.0010,0.0040,-0.0000,24.9100
6218953.0000,0.0123,0.0169,9.7619,0.0010,-0.0060,-0.0000,24.9100
6241953.0000,-0.0377,0.0069,9.8519,0.0010,-0.0060,-0.0000,25.0000
6264953.0000,0.0023,0.0369,9.7519,0.0010,-0.0060,-0.0000,24.8100
6287953.0000,0.0323,-0.0331,9.8119,0.0010,0.0040,-0.0000,24.9100
6310953.0000,-0.0277,-0.0231,9.8219,-0.0090,-0.0060,-0.0000,24.8600
6333953.0000,-0.0377,0.0369,9.7419,-0.0090,-0.0060,-0.0000,24.8600
6356953.0000,0.0223,0.0469,9.9119,-0.0090,0.0040,-0.0000,24.9500
6379953.0000,0.0123,0.0069,9.9419,0.0010,-0.0060,-0.0000,24.9500
6402953.0000,-0.0377,0.0469,9.8119,-0.0090,-0.0060,-0.0000,24.7700
6425953.0000,0.0223,0.0069,9.8319,0.0010,-0.0060,-0.0000,24.7200
6448953.0000,0.0323,-0.0331,9.7519,0.0010,0.0040,-0.0000,24.8100
6471953.0000,0.0223,-0.0331,9.7819,0.0010,0.0040,-0.0000,24.8100
6494953.0000,-0.0077,-0.0231,9.8019,0.0010,0.0040,-0.0000,24.8600
6517953.0000,0.0523,-0.0331,9.7419,0.0010,-0.0060,-0.0000,24.7700
6540953.0000,0.0123,0.0269,9.7719,0.0010,0.0040,-0.0000,24.9500
6563953.0000,0.0023,-0.0031,9.8819,0.0010,0.0040,-0.0000,24.8600
6586953.0000,0.0123,0.0269,9.7919,-0.0090,0.0040,-0.0000,24.8100
6609953.0000,-0.0377,0.0169,9.8719,0.0010,-0.0060,-0.0000,24.8100
6632953.0000,-0.0177,0.0869,9.7319,0.0010,0.0040,-0.0000,24.9100
6655953.0000,-0.0277,0.0169,9.7219,0.0010,-0.0060,-0.0000,24.9100
6678953.0000,0.0323,-0.0331,9.8219,0.0010,0.0040,-0.0000,24.8600
6701953.0000,0.0223,0.0469,9.7719,0.0010,0.0040,-0.0000,24.8600
6724953.0000,0.0323,-0.0031,9.8119,0.0010,0.0040,-0.0000,24.8600
6747953.0000,0.0323,-0.0431,9.7719,0.0010,0.0040,-0.0000,24.8600
6770953.0000,0.0123,0.0169,9.8119,0.0010,0.0040,-0.0000,24.8100
6793953.0000,-0.0477,-0.0131,9.8219,0.0010,0.0040,-0.0000,25.0000
6816953.0000,-0.0377,-0.0231,9.8419,0.0010,-0.0060,-0.0000,24.8100
6839953.0000,0.0223,0.0069,9.8219,-0.0090,-0.0060,-0.0000,24.9100
6862953.0000,0.0123,-0.0531,9.7719,0.0010,0.0040,-0.0000,24.9500
6885953.0000,-0.0777,0.0069,9.7319,0.0010,0.0040,-0.0000,24.7700
6908953.0000,0.0023,-0.0231,9.8419,0.0010,-0.0060,-0.0000,24.8600
6931953.0000,0.0023,-0.0131,9.8319,0.0010,0.0040,-0.0000,24.7700
6954953.0000,0.0123,0.0269,9.7819,0.0010,-0.0060,-0.0000,24.8600
6977953.0000,0.0123,0.0069,9.9119,0.0010,-0.0060,-0.0000,24.8100
7000953.0000,-0.0077,0.0269,9.8219,0.0010,-0.0060,-0.0000,24.9100
7023953.0000,0.0123,-0.0031,9.7919,0.0010,-0.0060,-0.0000,24.8100
7046953.0000,-0.0977,-0.0231,9.7819,0.0010,-0.0060,-0.0000,24.8100
7069953.0000,0.0523,-0.0331,9.6719,0.0010,0.0040,-0.0000,24.8600
7092953.0000,-0.0177,0.0469,9.8519,0.0010,0.0040,-0.0000,24.7700
7115953.0000,0.0423,-0.0331,9.7319,0.0010,-0.0060,-0.0000,24.7700
7138953.0000,0.0823,-0.0331,9.7919,-0.0090,-0.0060,-0.0000,24.8600
7161953.0000,0.0123,-0.0231,9.7519,0.0010,0.0040,-0.0000,24.8600
7184953.0000,0.0523,-0.0131,9.8719,0.0010,-0.0060,-0.0000,24.8100
7207953.0000,-0.0077,0.0669,9.8119,0.0010,0.0040,-0.0000,24.8100
7230953.0000,0.0723,-0.0131,9.9119,0.0010,0.0040,-0.0000,24.8100
7253953.0000,0.0223,0.0469,9.8119,0.0010,0.0040,-0.0000,24.8600
7276953.0000,-0.0077,0.0569,9.8719,0.0010,-0.0060,-0.0000,24.7700
7299953.0000,0.0523,0.0569,9.7719,0.0010,0.0040,-0.0000,24.7700
7322953.0000,0.0023,-0.0231,9.7819,0.0010,-0.0060,-0.0000,24.8600
7345953.0000,0.0723,-0.0231,9.7119,0.0010,0.0040,-0.0000,24.8100
7368953.0000,0.0323,-0.0231,9.8319,-0.0090,-0.0060,-0.0000,24.9100
7391953.0000,-0.0277,0.0869,9.8019,0.0010,-0.0060,0.0100,24.9100
7414953.0000,-0.0777,0.0369,9.8719,0.0010,-0.0060,-0.0000,24.8100
7437953.0000,0.0023,0.0269,9.6719,0.0010,-0.0060,-0.0000,24.8600
7460953.0000,0.0123,0.0069,9.8419,0.0010,-0.0060,-0.0000,24.8600
7483953.0000,-0.0177,-0.0031,9.8519,-0.0090,0.0040,-0.0000,24.8600
7506953.0000,0.0423,-0.0431,9.8619,0.0010,0.0040,-0.0000,24.8600
7529953.0000,0.0023,0.0569,9.7419,0.0010,-0.0060,-0.0000,24.8100
7552953.0000,0.0023,0.0669,9.7719,0.0010,0.0040,-0.0000,24.8100
7575953.0000,0.0023,-0.0331,9.8119,-0.0090,-0.0060,-0.0000,24.9100
7598953.0000,0.0223,0.0169,9.8919,0.0010,0.0040,-0.0000,24.8100
7621953.0000,-0.0477,-0.0331,9.8019,0.0010,0.0040,-0.0000,24.8600
7644953.0000,-0.0277,-0.0031,9.8019,0.0010,-0.0060,-0.0000,24.8600
7667953.0000,0.0223,-0.0331,9.8419,-0.0090,0.0040,-0.0000,24.8600
7690953.0000,-0.0077,-0.0031,9.8619,0.0010,-0.0060,-0.0000,24.8600
7713953.0000,0.0123,-0.0731,9.9319,0.0010,0.0040,-0.0000,24.8600
7736953.0000,0.0023,0.0169,9.8019,0.0010,0.0040,-0.0000,25.0000
7759953.0000,0.0623,-0.0031,9.6719,0.0010,0.0040,-0.0000,24.8100
7782953.0000,0.0123,-0.0031,9.8119,0.0010,0.0040,-0.0000,24.9100
7805953.0000,0.0123,-0.0231,9.7719,0.0010,-0.0060,-0.0000,24.8100
7828953.0000,-0.0177,0.0169,9.7619,0.0010,0.0040,-0.0000,24.8600
7851953.0000,0.0523,-0.0231,9.7619,0.0010,-0.0060,-0.0000,24.8600
7874953.0000,0.0523,0.0269,9.8619,0.0010,0.0040,-0.0000,24.8600
7897953.0000,0.0023,-0.1031,9.8419,0.0010,-0.0060,-0.0000,24.7700
7920953.0000,0.0223,0.0069,9.8719,0.0010,0.0040,-0.0000,24.8600
7943953.0000,0.0223,0.0369,9.8119,0.0010,0.0040,-0.0000,25.0000
7966953.0000,-0.0277,-0.0431,9.7319,0.0010,0.0040,-0.0000,25.0000
7989953.0000,-0.0077,-0.0031,9.8119,0.0010,-0.0060,-0.0000,24.9100
8012953.0000,0.0323,-0.0131,9.7819,-0.0090,-0.0060,-0.0000,24.8600
8035953.0000,-0.0477,0.0169,9.7819,0.0010,0.0040,-0.0000,24.7700
8058953.0000,-0.0277,-0.0131,9.7119,0.0010,-0.0060,-0.0000,24.8600
8081953.0000,0.0423,-0.0231,9.8119,0.0010,-0.0060,-0.0000,24.7700
8104953.0000,0.0623,-0.0031,9.7719,0.0010,0.0040,-0.0000,24.8100
8127953.0000,-0.0177,0.0169,9.7719,-0.0090,0.0040,-0.0000,24.9100
8150953.0000,-0.0177,-0.0431,9.8119,0.0010,0.0040,-0.0000,24.9100
8173953.0000,-0.0277,0.0169,9.7419,0.0010,-0.0060,-0.0000,24.9100
8196953.0000,-0.0377,-0.0331,9.7919,-0.0090,0.0040,-0.0000,24.8600
8219953.0000,-0.0277,-0.0031,9.7819,0.0010,-0.0060,-0.0000,24.7700
8242953.0000,-0.0177,-0.0231,9.7619,-0.0090,0.0040,-0.0000,24.8600
8265953.0000,-0.0077,-0.0131,9.8719,0.0010,-0.0060,-0.0000,24.8600
8288953.0000,0.0023,0.0169,9.8219,0.0010,-0.0060,-0.0000,24.9100
8311953.0000,-0.0477,0.0269,9.8619,0.0010,-0.0060,-0.0000,24.9100
8334953.0000,0.0123,-0.0331,9.7619,0.0010,-0.0060,-0.0000,24.9100
8357953.0000,0.0523,-0.0031,9.8119,0.0010,0.0040,-0.0000,24.8100
8380953.0000,0.0023,0.0869,9.8119,0.0010,0.0040,-0.0000,24.8100
8403953.0000,0.0323,0.0369,9.9219,0.0010,0.0040,-0.0000,24.8600
8426953.0000,0.0023,-0.0131,9.7919,0.0010,0.0040,-0.0000,24.8600
8449953.0000,-0.0277,-0.0231,9.8819,0.0010,-0.0060,-0.0000,24.8600
8472953.0000,-0.0277,-0.0631,9.9019,0.0010,-0.0060,-0.0000,24.8600
8495953.0000,0.0223,0.0169,9.9319,0.0010,0.0040,-0.0000,24.7200
8518953.0000,-0.0077,-0.0131,9.8519,0.0010,0.0040,-0.0000,24.9100
8541953.0000,0.0123,-0.0131,9.7919,0.0010,0.0040,-0.0000,24.8100
8564953.0000,0.0223,0.0969,9.8019,0.0010,-0.0060,-0.0000,24.8100
8587953.0000,-0.0077,-0.0031,9.8419,0.0010,0.0040,-0.0000,24.8600
8610953.0000,0.0523,0.0369,9.8919,0.0010,-0.0060,-0.0000,24.8600
8633953.0000,0.0123,-0.0331,9.8819,0.0010,0.0040,-0.0000,24.7700
8656953.0000,-0.0577,-0.0531,9.9119,0.0010,0.0040,-0.0000,24.7700
8679953.0000,-0.0477,0.0169,9.8219,0.0010,-0.0060,-0.0000,24.8600
8702953.0000,0.0323,0.0069,9.8419,0.0010,0.0040,-0.0000,24.8600
8725953.0000,-0.0077,0.0069,9.7619,0.0010,0.0040,-0.0000,24.9100
8748953.0000,0.0223,0.0169,9.7819,0.0010,-0.0060,-0.0000,24.9100
8771953.0000,-0.0177,-0.0131,9.7819,0.0010,0.0040,-0.0000,24.8600
8794953.0000,-0.0277,-0.0331,9.8219,0.0010,-0.0060,-0.0000,24.7700
8817953.0000,0.0223,0.0469,9.8019,0.0010,0.0040,-0.0000,24.8600
8840953.0000,0.0623,0.0769,9.8019,0.0010,0.0040,-0.0000,24.7700
8863953.0000,0.0123,-0.0431,9.7519,0.0010,0.0040,-0.0000,24.7200
8886953.0000,-0.0477,0.0169,9.8919,0.0010,-0.0060,-0.0000,24.9100
8909953.0000,-0.0277,-0.0231,9.8119,0.0010,-0.0060,-0.0000,24.9100
8932953.0000,-0.0077,0.0269,9.7719,0.0010,0.0040,-0.0000,24.9100
8955953.0000,0.0123,0.0369,9.8719,0.0010,0.0040,-0.0000,24.8600
8978953.0000,-0.0177,0.0169,9.7919,0.0010,0.0040,-0.0000,24.7700
9001953.0000,-0.0077,-0.0031,9.8419,0.0010,-0.0060,-0.0000,24.8600
9024953.0000,0.0423,-0.0231,9.7819,0.0010,0.0040,-0.0000,24.8600
9047953.0000,-0.0577,-0.0131,9.8519,0.0010,0.0040,-0.0000,24.7700
9070953.0000,-0.0577,-0.0031,9.7719,-0.0090,0.0040,-0.0000,24.9100
9093953.0000,-0.0077,0.0069,9.7919,0.0010,0.0040,-0.0000,24.8100
9116953.0000,-0.0177,0.0269,9.8619,0.0010,-0.0060,-0.0000,24.8100
9139953.0000,0.0323,0.0069,9.7719,0.0010,0.0040,-0.0000,24.9100
9162953.0000,0.0023,-0.0331,9.8119,0.0010,0.0040,-0.0000,24.7700
9185953.0000,-0.0877,-0.0231,9.8119,0.0010,0.0040,-0.0000,24.8600
9208953.0000,0.0023,0.0369,9.7319,0.0010,0.0040,-0.0000,24.8600
9231953.0000,-0.0277,0.0069,9.8319,0.0010,-0.0060,-0.0000,24.9500
9254953.0000,0.0223,-0.0331,9.8319,0.0010,-0.0060,-0.0000,24.9100
9277953.0000,0.0123,0.0469,9.7719,0.0010,0.0040,-0.0000,24.9100
9300953.0000,0.0023,0.0269,9.8619,0.0010,0.0040,-0.0000,24.9100
9323953.0000,-0.0177,-0.0231,9.8019,0.0010,0.0040,-0.0000,25.0000
9346953.0000,-0.0277,-0.0631,9.8019,0.0010,0.0040,-0.0000,24.8600
9369953.0000,0.0823,-0.0231,9.8219,-0.0090,-0.0060,-0.0000,24.9500
9392953.0000,-0.0277,0.0469,9.8219,0.0010,-0.0060,-0.0000,24.8600
9415953.0000,0.0423,0.0469,9.8419,0.0010,0.0040,-0.0000,24.8600
9438953.0000,0.0123,-0.0131,9.9119,0.0010,-0.0060,-0.0000,24.8600
9461953.0000,0.0023,-0.0231,9.8819,0.0010,0.0040,-0.0000,24.9500
9484953.0000,0.0323,0.0069,9.8219,0.0010,0.0040,-0.0000,25.0000
9507953.0000,0.0223,-0.0131,9.7319,0.0010,0.0040,-0.0000,24.9100
9530953.0000,0.0423,0.0569,9.8619,0.0010,0.0040,-0.0000,24.8600
9553953.0000,0.0323,0.0169,9.8219,0.0010,-0.0060,-0.0000,24.8600
9576953.0000,-0.0077,0.0069,9.8619,0.0010,-0.0060,-0.0000,24.7700
9599953.0000,-0.0077,-0.0131,9.8019,0.0010,0.0040,-0.0000,24.9500
9622953.0000,0.0023,0.0069,9.7719,0.0010,-0.0060,-0.0000,24.8100
9645953.0000,0.0023,-0.0331,9.8319,0.0010,0.0040,-0.0000,24.9100
9668953.0000,0.0223,-0.0031,9.7719,0.0010,0.0040,-0.0000,24.9100
9691953.0000,0.0423,0.0069,9.8019,0.0010,-0.0060,-0.0000,24.8100
9714953.0000,0.0523,-0.0331,9.8219,0.0010,0.0040,-0.0000,24.9100
9737953.0000,-0.0077,-0.0231,9.7119,0.0010,-0.0060,-0.0000,24.9500
9760953.0000,-0.0077,0.0469,9.7719,0.0010,0.0040,-0.0000,24.8600
9783953.0000,0.0123,-0.0531,9.8619,0.0010,-0.0060,-0.0000,24.9500
9806953.0000,-0.0277,-0.0331,9.8019,0.0010,0.0040,-0.0000,24.9500
9829953.0000,-0.0477,-0.0331,9.7319,0.0010,0.0040,-0.0000,24.9100
9852953.0000,-0.0177,0.0669,9.8419,0.0010,0.0040,-0.0000,24.8100
9875953.0000,-0.0677,-0.0231,9.8119,0.0010,0.0040,-0.0000,24.9100
9898953.0000,0.0323,0.0169,9.8719,0.0010,0.0040,-0.0000,24.8100
9921953.0000,-0.0077,0.0469,9.8319,0.0010,0.0040,-0.0000,24.7700
9944953.0000,0.0523,0.0669,9.8319,0.0010,-0.0060,-0.0000,24.9500
9967953.0000,-0.0277,0.0069,9.7719,0.0010,0.0040,-0.0000,24.8600
9990953.0000,-0.0077,0.0369,9.7719,-0.0090,0.0040,-0.0000,24.8600
10013953.0000,-0.0077,-0.0131,9.8219,-0.0090,0.0040,-0.0000,24.9100
10036953.0000,0.0323,0.0069,9.7919,0.0010,0.0040,-0.0000,24.8100
10059953.0000,-0.0177,0.0569,9.7319,-0.0090,0.0040,-0.0000,24.8100
10082953.0000,0.0723,0.0069,9.9319,0.0010,-0.0060,-0.0000,24.8100
10105953.0000,0.0423,0.0069,9.7619,0.0010,0.0040,-0.0000,24.8600
10128953.0000,0.0523,0.0269,9.8119,0.0010,-0.0060,-0.0000,24.8600
10151953.0000,0.0323,0.0069,9.7719,0.0010,0.0040,-0.0000,24.9500
10174953.0000,-0.0077,-0.0331,9.8019,0.0010,0.0040,-0.0000,24.8600
10197953.0000,-0.0377,0.0069,9.8719,0.0010,-0.0060,-0.0000,24.7700
10220953.0000,0.0323,0.0169,9.8619,0.0010,0.0040,-0.0000,24.9500
10243953.0000,0.0323,-0.0231,9.8819,0.0010,0.0040,-0.0000,24.9100
10266953.0000,-0.0177,0.0169,9.8319,0.0010,0.0040,-0.0000,24.9100
10289953.0000,0.0223,0.0169,9.7919,0.0010,-0.0060,-0.0000,24.7700
10312953.0000,-0.0177,0.0569,9.8419,0.0010,0.0040,-0.0000,24.8600
10335953.0000,0.0123,-0.0031,9.9619,0.0010,0.0040,-0.0000,24.8600
10358953.0000,-0.0277,0.0269,9.8819,0.0010,-0.0060,-0.0000,24.8600
10381953.0000,0.0423,0.0369,9.8419,0.0010,-0.0060,-0.0000,24.8100
10404953.0000,0.0523,0.0269,9.8519,-0.0090,-0.0060,-0.0000,24.8100
10427953.0000,-0.0077,-0.0731,9.7819,0.0010,-0.0060,-0.0000,24.9100
10450953.0000,0.0123,-0.0031,9.8219,0.0010,0.0040,-0.0000,24.8100
10473953.0000,-0.0477,-0.0031,9.8319,0.0010,0.0040,-0.0000,24.9100
10496953.0000,-0.0077,0.0169,9.9019,0.0010,-0.0060,-0.0000,24.8600
10519953.0000,-0.0077,0.0369,9.8819,-0.0090,0.0040,-0.0000,24.8600
10542953.0000,0.0123,-0.1131,9.8919,0.0010,0.0040,-0.0000,24.9500
10565953.0000,0.0023,-0.0131,9.8419,0.0010,0.0040,-0.0000,24.7700
10588953.0000,-0.0377,-0.0431,9.7819,0.0010,0.0040,-0.0000,24.9100
10611953.0000,-0.0177,0.0569,9.8619,0.0010,0.0040,-0.0000,24.8100
10634953.0000,-0.0477,-0.0031,9.8219,0.0010,-0.0060,-0.0000,24.9100
10657953.0000,-0.0277,0.0469,9.6919,0.0010,-0.0060,-0.0000,24.8100
10680953.0000,0.0323,-0.0031,9.8219,0.0010,-0.0060,-0.0000,24.9500
10703953.0000,-0.0277,0.0069,9.8019,0.0010,-0.0060,-0.0000,24.8600
10726953.0000,-0.0177,-0.0731,9.8519,0.0010,0.0040,-0.0000,24.7700
10749953.0000,0.0823,0.0269,9.7819,0.0010,0.0040,-0.0000,24.7700
10772953.0000,0.0423,0.0469,9.7019,0.0010,-0.0060,-0.0000,24.8100
10795953.0000,0.0923,0.0469,9.7519,0.0010,0.0040,-0.0000,24.9100
10818953.0000,-0.0077,0.0069,9.8919,0.0010,0.0040,-0.0000,24.8100
10841953.0000,0.0323,0.0369,9.7519,0.0010,-0.0060,-0.0000,24.8100
10864953.0000,-0.0277,0.0269,9.7619,0.0010,-0.0060,-0.0000,24.8600
10887953.0000,0.0023,0.0369,9.8219,0.0010,0.0040,-0.0000,24.8600
10910953.0000,-0.0177,-0.0831,9.7719,0.0010,0.0040,-0.0000,24.9500
10933953.0000,0.0123,-0.0231,9.8619,0.0010,0.0040,-0.0000,24.7700
10956953.0000,0.0323,0.0169,9.8219,-0.0090,-0.0060,-0.0000,24.8600
10979953.0000,-0.0377,0.0769,9.8019,0.0010,0.0040,-0.0000,24.8600
11002953.0000,0.0023,0.0169,9.8019,0.0010,-0.0060,-0.0000,24.8100
11025953.0000,0.0023,0.0069,9.7919,0.0010,0.0040,-0.0000,24.9100
11048953.0000,-0.0477,0.0269,9.8419,-0.0090,-0.0060,-0.0000,24.9500
11071953.0000,0.0323,-0.0031,9.8219,0.0010,-0.0060,-0.0000,24.9500
11094953.0000,-0.0277,-0.0331,9.8019,0.0010,-0.0060,-0.0000,24.8600
11117953.0000,-0.0377,0.0069,9.8519,0.0010,0.0040,-0.0000,24.9500
11140953.0000,-0.0277,-0.0031,9.7619,0.0010,0.0040,-0.0000,24.8600
11163953.0000,0.0123,0.0369,9.8719,0.0010,0.0040,-0.0000,24.8100
11186953.0000,-0.0177,0.0069,9.8119,-0.0090,0.0040,-0.0000,24.9100
11209953.0000,0.0423,-0.0331,9.8419,0.0010,0.0040,-0.0000,24.9100
11232953.0000,-0.0277,0.0569,9.8419,0.0010,0.0040,-0.0000,24.9100
11255953.0000,0.0423,-0.0031,9.8619,0.0010,-0.0060,-0.0000,24.7700
11278953.0000,0.0123,0.0169,9.7719,0.0010,0.0040,-0.0000,24.9500
11301953.0000,0.0023,-0.0031,9.8419,0.0010,-0.0060,-0.0000,24.8600
11324953.0000,0.0323,-0.0331,9.8419,0.0010,0.0040,-0.0000,24.8600
11347953.0000,-0.0277,-0.0031,9.8119,0.0010,0.0040,-0.0000,24.9100
11370953.0000,0.0323,0.0169,9.7719,0.0010,-0.0060,-0.0000,24.8100
11393953.0000,0.0123,-0.0531,9.7619,0.0010,0.0040,-0.0000,24.8100
11416953.0000,0.0323,0.0469,9.7119,0.0010,0.0040,-0.0000,24.9100
11439953.0000,0.0223,-0.0531,9.8419,-0.0090,-0.0060,-0.0000,24.8600
11462953.0000,-0.0277,-0.0131,9.8419,0.0010,-0.0060,-0.0000,24.8600
11485953.0000,0.0223,-0.0131,9.7819,0.0010,0.0040,-0.0000,24.8600
11508953.0000,-0.0677,0.0069,9.8519,0.0010,-0.0060,-0.0000,24.8600
11531953.0000,-0.0277,0.0069,9.7819,0.0010,0.0040,-0.0000,24.9100
11554953.0000,0.0023,0.0169,9.7419,0.0010,-0.0060,-0.0000,24.9100
11577953.0000,0.0523,0.0369,9.8219,0.0010,-0.0060,-0.0000,24.9100
11600953.0000,-0.0177,-0.0131,9.7719,0.0010,0.0040,-0.0000,24.9100
11623953.0000,0.0223,0.0069,9.8219,0.0010,0.0040,-0.0000,24.8600
11646953.0000,0.0223,-0.0131,9.7519,-0.0090,0.0040,-0.0000,24.8600
11669953.0000,-0.0277,0.0169,9.7919,0.0010,0.0040,-0.0000,24.8600
11692953.0000,0.0723,-0.0231,9.8619,0.0010,0.0040,-0.0000,24.9500
11715953.0000,0.0023,-0.0031,9.7419,0.0010,-0.0060,-0.0000,24.9500
11738953.0000,-0.0277,-0.0631,9.8119,0.0010,-0.0060,-0.0000,24.8600
11761953.0000,-0.0377,0.0769,9.8519,0.0010,0.0040,-0.0000,24.9100
11784953.0000,-0.0377,-0.0131,9.7919,0.0010,0.0040,-0.0000,24.9100
11807953.0000,-0.0177,-0.0031,9.8919,0.0010,0.0040,-0.0000,24.9100
11830953.0000,-0.0377,-0.0531,9.8819,0.0010,0.0040,-0.0000,24.8600
11853953.0000,0.0023,-0.0131,9.8519,0.0010,0.0040,-0.0000,24.7700
11876953.0000,0.0123,-0.0331,9.8319,0.0010,0.0040,-0.0000,24.8600
11899953.0000,0.0023,-0.0331,9.8619,0.0010,0.0040,-0.0000,24.8600
11922953.0000,0.0523,0.0469,9.7719,-0.0090,-0.0060,-0.0000,24.8100
11945953.0000,0.0623,-0.0231,9.7219,0.0010,0.0040,-0.0000,24.9100
11968953.0000,0.0623,0.0269,9.8519,0.0010,0.0040,-0.0000,24.8100
11991953.0000,0.0123,-0.0331,9.8319,0.0010,0.0040,-0.0000,24.8100
12014953.0000,0.0523,-0.0031,9.8519,0.0010,0.0040,-0.0000,24.8600
12037953.0000,0.0223,0.0269,9.7519,0.0010,0.0040,-0.0000,24.8600
12060953.0000,-0.0277,0.0269,9.7519,0.0010,-0.0060,0.0100,24.8600
12083953.0000,-0.0077,0.0269,9.8519,0.0010,-0.0060,-0.0000,24.8600
12106953.0000,0.0623,0.0069,9.8619,0.0010,0.0040,-0.0000,24.8100
12129953.0000,0.0523,0.0569,9.7719,0.0010,0.0040,-0.0000,24.8100
12152953.0000,-0.0277,0.0469,9.8519,-0.0090,-0.0060,-0.0000,24.9100
12175953.0000,0.0023,0.0169,9.7519,0.0010,-0.0060,-0.0000,24.8100
12198953.0000,-0.0077,-0.0131,9.7619,0.0010,-0.0060,-0.0000,24.8600
12221953.0000,-0.0077,0.0469,9.8119,-0.0090,0.0040,-0.0000,24.8600
12244953.0000,0.0123,0.0269,9.7219,-0.0090,0.0040,-0.0000,24.9500
12267953.0000,-0.0577,0.0669,9.7719,0.0010,0.0040,-0.0000,24.9500
12290953.0000,0.0223,0.0069,9.7919,0.0010,0.0040,-0.0000,24.9100
12313953.0000,-0.0577,-0.0831,9.8319,0.0010,0.0040,-0.0000,24.9100
12336953.0000,0.0023,0.0069,9.8119,0.0010,-0.0060,-0.0000,24.8100
12359953.0000,-0.0177,0.0369,9.8019,0.0010,0.0040,-0.0000,24.9100
12382953.0000,0.0123,0.0269,9.8819,0.0010,0.0040,-0.0000,24.8600
12405953.0000,-0.0077,-0.0131,9.8819,0.0010,-0.0060,-0.0000,24.8600
12428953.0000,0.0023,0.0269,9.8219,0.0010,-0.0060,-0.0000,24.9500
12451953.0000,-0.0277,-0.0131,9.8419,0.0010,0.0040,-0.0000,24.9500
12474953.0000,-0.0577,0.0269,9.8319,0.0010,0.0040,-0.0000,24.8600
12497953.0000,0.0023,-0.0031,9.8319,0.0010,0.0040,-0.0000,24.8600
12520953.0000,-0.0177,-0.0131,9.7719,0.0010,0.0040,0.0100,24.8100
12543953.0000,-0.0677,-0.0631,9.7919,0.0010,0.0040,-0.0000,24.9100
12566953.0000,0.0223,0.0169,9.7819,0.0010,0.0040,-0.0000,24.9100
12589953.0000,0.0323,0.0269,9.7919,0.0010,0.0040,-0.0000,24.8600
12612953.0000,0.0323,-0.0431,9.7419,-0.0090,-0.0060,-0.0000,24.9500
12635953.0000,0.0223,-0.0331,9.8019,0.0010,-0.0060,-0.0000,24.8600
12658953.0000,0.0223,-0.0131,9.7819,0.0010,0.0040,-0.0000,24.9500
12681953.0000,-0.0177,0.0669,9.7819,0.0010,0.0040,-0.0000,24.8100
12704953.0000,0.0123,0.0169,9.8819,0.0010,-0.0060,-0.0000,24.8100
12727953.0000,-0.0477,-0.0031,9.8819,0.0010,-0.0060,-0.0000,24.9100
12750953.0000,-0.0077,-0.0231,9.8819,0.0010,0.0040,-0.0000,24.8100
12773953.0000,0.0123,0.0369,9.7819,0.0010,0.0040,-0.0000,24.8600
12796953.0000,0.0223,-0.0331,9.7719,0.0010,0.0040,-0.0000,24.8600
12819953.0000,0.0123,-0.0231,9.7119,0.0010,-0.0060,-0.0000,24.9500
12842953.0000,0.0723,0.0069,9.7419,0.0010,0.0040,-0.0000,24.8600
12865953.0000,0.0723,0.0069,9.8019,0.0010,-0.0060,-0.0000,24.9100
12888953.0000,0.0223,-0.0331,9.8319,0.0010,-0.0060,-0.0000,24.9100
12911953.0000,0.0223,0.0269,9.7519,0.0010,0.0040,-0.0000,24.9100
12934953.0000,0.0123,-0.0531,9.7619,0.0010,-0.0060,-0.0000,24.9100
12957953.0000,0.0423,0.0169,9.7119,0.0010,-0.0060,-0.0000,24.9500
12980953.0000,0.0223,0.0069,9.7719,0.0010,0.0040,-0.0000,24.8600
13003953.0000,0.0123,0.0469,9.8819,0.0010,-0.0060,-0.0000,24.8600
13026953.0000,-0.0477,-0.0431,9.7419,0.0010,-0.0060,-0.0000,24.9500
13049953.0000,-0.0077,0.0769,9.7819,0.0010,0.0040,-0.0000,24.9100
13072953.0000,0.0723,0.0069,9.7619,0.0010,0.0040,-0.0000,24.9100
13095953.0000,-0.0077,-0.0331,9.8019,0.0010,0.0040,-0.0000,24.9100
13118953.0000,-0.0077,-0.0131,9.7919,0.0010,0.0040,-0.0000,24.9100
13141953.0000,0.0323,0.0269,9.8619,-0.0090,0.0040,-0.0000,24.9500
13164953.0000,-0.0077,-0.0231,9.7819,0.0010,0.0040,-0.0000,24.8600
13187953.0000,0.0023,0.0169,9.8319,-0.0090,-0.0060,-0.0000,24.8600
13210953.0000,0.0023,-0.0131,9.8019,0.0010,-0.0060,-0.0000,24.8600
13233953.0000,0.0123,-0.0131,9.8019,-0.0090,-0.0060,-0.0000,24.8600
13256953.0000,-0.0077,0.0069,9.8419,0.0010,-0.0060,-0.0000,24.8600
13279953.0000,-0.0077,-0.0131,9.7819,0.0010,0.0040,-0.0000,25.0000
13302953.0000,0.0023,0.0069,9.8619,0.0010,0.0040,-0.0000,24.9100
13325953.0000,0.0023,0.0269,9.7919,0.0010,-0.0060,-0.0000,25.0000
13348953.0000,-0.0077,0.0169,9.7919,-0.0090,-0.0060,-0.0000,24.9500
13371953.0000,-0.0077,-0.0431,9.8519,-0.0090,-0.0060,-0.0000,24.9500
13394953.0000,-0.0377,0.0469,9.7619,0.0010,0.0040,-0.0000,24.8600
13417953.0000,-0.0177,0.0069,9.8119,0.0010,-0.0060,-0.0000,24.9500
13440953.0000,0.0023,0.0369,9.8819,0.0010,-0.0060,-0.0000,24.8100
13463953.0000,-0.0077,-0.0431,9.8019,0.0010,0.0040,-0.0000,24.8100
13486953.0000,0.0323,0.0069,9.8719,0.0010,0.0040,-0.0000,24.9100
13509953.0000,0.0123,0.0069,9.7019,0.0010,-0.0060,-0.0000,24.9100
13532953.0000,-0.0077,0.0369,9.7319,0.0010,-0.0060,-0.0000,24.8600
13555953.0000,0.0823,-0.0431,9.9119,0.0010,-0.0060,-0.0000,24.9500
13578953.0000,0.0023,0.0069,9.8319,0.0010,0.0040,-0.0000,24.8600
13601953.0000,-0.0077,0.0069,9.7419,0.0010,-0.0060,-0.0000,24.9500
13624953.0000,0.0023,0.0069,9.8019,0.0010,-0.0060,-0.0000,24.9100
13647953.0000,0.0423,-0.0631,9.7719,0.0010,0.0040,-0.0000,24.9100
13670953.0000,0.0423,0.0369,9.8319,0.0010,0.0040,-0.0000,24.9100
13693953.0000,0.0223,-0.0431,9.7919,0.0010,0.0040,-0.0000,24.9100
13716953.0000,0.0123,0.0169,9.8019,0.0010,0.0040,-0.0000,24.8600
13739953.0000,0.0023,0.0269,9.8419,0.0010,0.0040,-0.0000,24.9500
13762953.0000,-0.0077,-0.0331,9.7919,-0.0090,-0.0060,-0.0000,24.9500
13785953.0000,0.0223,0.0169,9.8519,0.0010,0.0040,-0.0000,24.8600
13808953.0000,-0.0077,-0.0631,9.7919,0.0010,-0.0060,-0.0000,24.8100
13831953.0000,-0.0177,0.0869,9.8319,-0.0090,0.0040,-0.0000,24.9100
13854953.0000,-0.0277,-0.0231,9.8119,0.0010,0.0040,-0.0000,25.0000
13877953.0000,-0.0677,0.0369,9.8319,-0.0090,0.0040,-0.0000,24.9100
13900953.0000,0.0123,-0.0131,9.7319,0.0010,-0.0060,-0.0000,24.8100
13923953.0000,-0.0377,0.0169,9.7919,-0.0090,0.0040,-0.0000,24.8600
13946953.0000,0.0423,0.0269,9.7919,0.0010,-0.0060,-0.0000,24.8600
13969953.0000,0.0323,0.0069,9.8819,0.0010,0.0040,-0.0000,24.9500
13992953.0000,0.0323,0.0169,9.7619,0.0010,0.0040,-0.0000,24.7700
14015953.0000,-0.0577,0.0369,9.8619,-0.0090,-0.0060,-0.0000,24.9500
14038953.0000,-0.0177,0.0069,9.7819,0.0010,-0.0060,-0.0000,24.9100
14061953.0000,-0.0477,0.0269,9.8219,-0.0090,-0.0060,-0.0000,25.0000
14084953.0000,0.0423,0.0269,9.7919,0.0010,-0.0060,-0.0000,24.9100
14107953.0000,0.0523,0.0369,9.7119,0.0010,-0.0060,-0.0000,24.8600
14130953.0000,-0.0077,-0.0331,9.7219,0.0010,0.0040,-0.0000,24.8600
14153953.0000,-0.0177,-0.0131,9.8219,0.0010,0.0040,-0.0000,24.8600
14176953.0000,0.0323,0.0669,9.7719,0.0010,0.0040,-0.0000,24.8600
14199953.0000,-0.0177,0.0369,9.7719,0.0010,0.0040,-0.0000,24.9100
14222953.0000,-0.0177,-0.0431,9.8719,0.0010,0.0040,-0.0000,24.9100
14245953.0000,0.0423,0.0669,9.8419,0.0010,-0.0060,-0.0000,24.9100
14268953.0000,-0.0477,-0.0231,9.7419,0.0010,-0.0060,-0.0000,24.9100
14291953.0000,0.0323,0.0669,9.8019,0.0010,0.0040,-0.0000,24.8600
14314953.0000,0.0123,0.0169,9.7719,0.0010,0.0040,-0.0000,24.9500
14337953.0000,-0.0477,-0.0131,9.7919,0.0010,0.0040,-0.0000,24.7700
14360953.0000,0.0423,0.0069,9.7819,0.0010,0.0040,-0.0000,24.8600
14383953.0000,0.0223,0.0169,9.8819,0.0010,-0.0060,-0.0000,24.9100
14406953.0000,0.0323,0.0469,9.7819,0.0010,0.0040,-0.0000,24.9100
14429953.0000,0.0023,0.0569,9.7819,-0.0090,0.0040,-0.0000,24.8100
14452953.0000,0.0123,-0.0031,9.7619,0.0010,-0.0060,-0.0000,24.9100
14475953.0000,0.0323,0.0769,9.8419,0.0010,0.0040,-0.0000,24.8600
14498953.0000,-0.0277,0.0169,9.8719,0.0010,0.0040,-0.0000,24.8600
14521953.0000,-0.0877,-0.0831,9.8319,0.0010,0.0040,-0.0000,24.8600
14544953.0000,-0.0277,0.0169,9.7719,0.0010,-0.0060,-0.0000,24.9500
14567953.0000,0.0123,-0.0331,9.7919,0.0010,-0.0060,-0.0000,24.8600
14590953.0000,-0.0277,-0.0131,9.7419,0.0010,0.0040,-0.0000,24.8100
14613953.0000,-0.0077,0.0269,9.8119,-0.0090,0.0040,-0.0000,24.9100
14636953.0000,-0.0377,-0.0431,9.8319,0.0010,0.0040,-0.0000,24.9100
14659953.0000,0.0123,0.0269,9.8019,-0.0090,0.0040,-0.0000,24.9100
14682953.0000,0.0023,-0.0131,9.7719,0.0010,0.0040,-0.0000,24.9500
14705953.0000,0.0023,-0.0131,9.8319,0.0010,0.0040,-0.0000,24.9500
14728953.0000,-0.0177,0.0669,9.7819,0.0010,0.0040,-0.0000,24.8600
14751953.0000,0.0223,-0.0331,9.9019,0.0010,0.0040,-0.0000,24.9500
14774953.0000,0.0223,-0.0131,9.7819,-0.0090,0.0040,-0.0000,24.9500
14797953.0000,-0.0077,0.0169,9.7619,0.0010,0.0040,-0.0000,24.9100
14820953.0000,0.0123,-0.0131,9.7719,0.0010,0.0040,-0.0000,24.8100
14843953.0000,-0.0277,0.0069,9.7919,0.0010,0.0040,-0.0000,24.9100
14866953.0000,-0.0277,0.0069,9.7919,0.0010,-0.0060,-0.0000,24.7700
14889953.0000,-0.0077,0.0569,9.8219,0.0010,0.0040,-0.0000,24.8600
14912953.0000,0.0023,0.0169,9.8119,0.0010,0.0040,-0.0000,24.9500
14935953.0000,0.0223,-0.0331,9.7719,0.0010,-0.0060,-0.0000,24.8600
14958953.0000,-0.0277,0.0269,9.8219,0.0010,0.0040,-0.0000,24.8100
14981953.0000,0.0223,0.0269,9.8319,0.0010,0.0040,-0.0000,24.8100
15004953.0000,-0.0277,0.0369,9.8419,0.0010,-0.0060,-0.0000,24.9100
15027953.0000,-0.0577,-0.0131,9.7819,0.0010,0.0040,-0.0000,24.8100
15050953.0000,-0.0177,0.0569,9.7819,0.0010,-0.0060,-0.0000,24.9500
15073953.0000,-0.0277,0.0169,9.7119,0.0010,0.0040,-0.0000,24.7700
15096953.0000,-0.0377,-0.0031,9.7719,-0.0090,0.0040,-0.0000,24.9500
15119953.0000,0.0423,-0.0231,9.6919,0.0010,-0.0060,-0.0000,24.7700
15142953.0000,-0.0477,-0.0631,9.7619,0.0010,-0.0060,-0.0000,24.8100
15165953.0000,-0.0277,-0.0431,9.8419,0.0010,-0.0060,-0.0000,24.8100
15188953.0000,-0.0477,-0.0331,9.8219,-0.0090,0.0040,-0.0000,24.9100
15211953.0000,0.0123,-0.0231,9.8419,0.0010,0.0040,-0.0000,24.8100
15234953.0000,0.0023,-0.0431,9.8219,0.0010,0.0040,-0.0000,24.9500
15257953.0000,-0.0377,0.0069,9.8219,0.0010,0.0040,-0.0000,24.8600
15280953.0000,-0.0077,0.0369,9.8319,0.0010,0.0040,-0.0000,24.8600
15303953.0000,0.0123,-0.0731,9.7919,0.0010,0.0040,-0.0000,24.8600
15326953.0000,-0.0177,0.0369,9.8419,0.0010,-0.0060,-0.0000,24.7700
15349953.0000,0.0923,-0.0131,9.8119,0.0010,-0.0060,-0.0000,24.9100
15372953.0000,0.0023,-0.0331,9.8019,0.0010,0.0040,-0.0000,24.9100
15395953.0000,0.0123,-0.0031,9.8419,0.0010,-0.0060,-0.0000,24.9100
15418953.0000,0.0123,0.0469,9.8519,0.0010,-0.0060,-0.0000,24.9100
15441953.0000,-0.0277,-0.0031,9.8419,0.0010,-0.0060,-0.0000,24.8600
15464953.0000,0.0123,0.0069,9.7919,0.0010,-0.0060,-0.0000,24.8600
15487953.0000,-0.0177,-0.0231,9.7919,0.0010,0.0040,-0.0000,24.7700
15510953.0000,0.0023,0.0169,9.7819,0.0010,0.0040,-0.0000,24.8600
15533953.0000,0.0223,-0.0231,9.7619,0.0010,0.0040,-0.0000,24.8600
15556953.0000,0.0123,0.0169,9.8219,0.0010,0.0040,-0.0000,24.8100
15579953.0000,0.0023,0.0069,9.8219,0.0010,-0.0060,-0.0000,24.8100
15602953.0000,0.0523,-0.0031,9.7819,0.0010,0.0040,-0.0000,24.8100
15625953.0000,0.0023,0.0069,9.6819,0.0010,0.0040,-0.0000,24.8600
15648953.0000,0.0023,0.0469,9.7619,0.0010,0.0040,-0.0000,24.8600
15671953.0000,-0.0477,-0.0331,9.6819,0.0010,0.0040,-0.0000,24.8600
15694953.0000,0.0123,-0.0431,9.8219,0.0010,0.0040,-0.0000,24.8600
15717953.0000,0.0023,0.0269,9.8019,0.0010,0.0040,-0.0000,24.8100
15740953.0000,0.0023,-0.0331,9.9019,0.0010,0.0040,-0.0000,24.9100
15763953.0000,0.0623,-0.0231,9.8019,0.0010,-0.0060,-0.0000,24.9100
15786953.0000,-0.0077,-0.0431,9.8119,0.0010,0.0040,-0.0000,24.8100
15809953.0000,-0.0577,0.0469,9.8019,0.0010,0.0040,-0.0000,24.8600
15832953.0000,-0.0177,0.0069,9.8219,0.0010,0.0040,-0.0000,24.8600
15855953.0000,0.0023,-0.0031,9.8919,0.0010,0.0040,-0.0000,24.9500
15878953.0000,-0.0477,0.0169,9.7219,0.0010,-0.0060,-0.0000,24.8600
15901953.0000,-0.0277,-0.0231,9.8519,0.0010,0.0040,-0.0000,24.9100
15924953.0000,0.0323,-0.0331,9.8019,0.0010,0.0040,0.0100,24.9100
15947953.0000,0.0623,0.0069,9.7919,0.0010,0.0040,-0.0000,25.0000
15970953.0000,-0.0077,0.0269,9.7119,0.0010,0.0040,-0.0000,24.9100
15993953.0000,-0.0477,-0.0131,9.8719,0.0010,-0.0060,-0.0000,24.8100
16016953.0000,-0.0177,-0.0531,9.9019,0.0010,-0.0060,-0.0000,24.9500
16039953.0000,0.0123,0.0169,9.8519,0.0010,-0.0060,-0.0000,24.9500
16062953.0000,-0.0077,0.0369,9.7219,0.0010,-0.0060,-0.0000,24.8600
16085953.0000,-0.0577,0.0269,9.8119,-0.0090,0.0040,-0.0000,24.8600
16108953.0000,-0.0177,0.0169,9.8319,0.0010,0.0040,-0.0000,24.9100
16131953.0000,0.0523,-0.0131,9.8819,0.0010,0.0040,-0.0000,24.9100
16154953.0000,-0.0377,0.0469,9.8219,0.0010,0.0040,-0.0000,24.8100
16177953.0000,0.0323,-0.0231,9.7619,0.0010,0.0040,-0.0000,24.9100
16200953.0000,0.0023,0.0269,9.8119,0.0010,0.0040,-0.0000,24.8600
16223953.0000,-0.0377,0.0169,9.7919,0.0010,0.0040,-0.0000,24.9500
16246953.0000,0.0623,-0.0331,9.7819,0.0010,-0.0060,-0.0000,24.8600
16269953.0000,0.0023,0.0269,9.8119,0.0010,-0.0060,-0.0000,24.9500
16292953.0000,-0.0377,0.0569,9.8019,0.0010,-0.0060,-0.0000,24.8600
16315953.0000,-0.0677,0.0569,9.7719,0.0010,0.0040,-0.0000,24.8600
16338953.0000,-0.0277,-0.0031,9.8019,0.0010,0.0040,-0.0000,24.8100
16361953.0000,-0.0177,-0.0331,9.7419,0.0010,0.0040,-0.0000,24.8100
16384953.0000,0.0323,0.0169,9.8319,0.0010,-0.0060,-0.0000,24.8600
16407953.0000,-0.0277,0.0069,9.8319,0.0010,-0.0060,-0.0000,24.8600
16430953.0000,0.0123,0.0069,9.7719,-0.0090,0.0040,-0.0000,24.8600
16453953.0000,0.0123,0.0069,9.7819,0.0010,-0.0060,-0.0000,24.7700
16476953.0000,-0.0277,0.0369,9.7419,0.0010,0.0040,-0.0000,24.8100
16499953.0000,0.0123,0.0169,9.9119,0.0010,-0.0060,-0.0000,24.9100
16522953.0000,0.0223,-0.0131,9.8419,0.0010,0.0040,-0.0000,25.0000
16545953.0000,-0.0177,-0.0231,9.8319,0.0010,-0.0060,-0.0000,24.9100
16568953.0000,0.0323,0.0169,9.7719,0.0010,-0.0060,-0.0000,24.8600
16591953.0000,-0.0177,-0.0031,9.9219,0.0010,0.0040,-0.0000,24.8600
16614953.0000,0.0223,0.0369,9.6919,0.0010,0.0040,-0.0000,24.8600
16637953.0000,-0.0377,0.0069,9.8619,0.0010,-0.0060,-0.0000,24.8600
16660953.0000,-0.0177,-0.0531,9.7419,0.0010,-0.0060,-0.0000,24.7700
16683953.0000,0.0323,0.0169,9.8819,0.0010,0.0040,-0.0000,24.8100
16706953.0000,0.0123,-0.0231,9.8219,0.0010,0.0040,-0.0000,24.9100
16729953.0000,0.0723,0.0369,9.8219,0.0010,0.0040,-0.0000,24.8100
16752953.0000,0.0223,0.0069,9.7419,0.0010,0.0040,-0.0000,24.8100
16775953.0000,-0.0077,0.0269,9.8319,0.0010,-0.0060,-0.0000,24.8600
16798953.0000,0.0223,0.0169,9.8019,-0.0090,0.0040,-0.0000,24.9500
16821953.0000,0.0023,-0.0331,9.8819,0.0010,0.0040,-0.0000,24.9500
16844953.0000,-0.0177,0.0569,9.8119,0.0010,-0.0060,-0.0000,24.7700
16867953.0000,-0.0377,0.0469,9.8619,0.0010,0.0040,-0.0000,24.9100
16890953.0000,-0.0177,-0.0131,9.8719,0.0010,-0.0060,-0.0000,24.8100
16913953.0000,0.0123,-0.0431,9.8119,-0.0090,-0.0060,-0.0000,24.9100
16936953.0000,-0.0577,-0.0631,9.7419,0.0010,-0.0060,-0.0000,24.9100
16959953.0000,0.0523,-0.0131,9.8319,0.0010,0.0040,-0.0000,24.8600
16982953.0000,0.0723,0.0069,9.7419,-0.0090,0.0040,-0.0000,24.8600
17005953.0000,-0.0377,-0.0131,9.8019,0.0010,0.0040,-0.0000,24.8600
17028953.0000,-0.0277,-0.0531,9.8219,0.0010,0.0040,-0.0000,24.8600
17051953.0000,-0.0177,-0.0331,9.6819,0.0010,-0.0060,-0.0000,24.8600
17074953.0000,0.0523,-0.0031,9.7519,0.0010,0.0040,-0.0000,24.8600
17097953.0000,-0.0077,-0.0031,9.7719,0.0010,-0.0060,-0.0000,24.8100
17120953.0000,-0.0177,0.0269,9.8419,0.0010,0.0040,-0.0000,24.8100
17143953.0000,0.0023,-0.0231,9.8019,0.0010,0.0040,-0.0000,24.7700
17166953.0000,0.0223,0.0469,9.8719,0.0010,-0.0060,-0.0000,24.9500
17189953.0000,0.0023,-0.0031,9.8419,0.0010,0.0040,-0.0000,24.8600
17212953.0000,0.0023,-0.0331,9.8719,-0.0090,0.0040,-0.0000,24.8600
17235953.0000,-0.0277,0.0069,9.6819,0.0010,-0.0060,-0.0000,24.9100
17258953.0000,-0.0477,0.0369,9.8719,0.0010,-0.0060,-0.0000,24.8100
17281953.0000,-0.0177,-0.0131,9.7919,0.0010,0.0040,-0.0000,24.8100
17304953.0000,-0.0077,0.0669,9.7419,0.0010,-0.0060,-0.0000,24.8100
17327953.0000,0.0323,0.0769,9.7919,0.0010,-0.0060,-0.0000,24.8100
17350953.0000,-0.0177,-0.0131,9.7519,-0.0090,-0.0060,-0.0000,24.8600
17373953.0000,-0.0477,-0.0431,9.8219,0.0010,-0.0060,-0.0000,24.9500
17396953.0000,0.0123,-0.0331,9.8519,0.0010,-0.0060,-0.0000,24.8600
17419953.0000,-0.0277,0.0369,9.7819,0.0010,0.0040,-0.0000,24.8600
17442953.0000,0.0223,-0.0331,9.8719,0.0010,0.0040,-0.0000,24.7200
17465953.0000,0.0123,-0.0531,9.7419,0.0010,0.0040,-0.0000,24.8100
17488953.0000,-0.0077,0.0269,9.7519,0.0010,-0.0060,-0.0000,24.9100
17511953.0000,-0.0077,-0.0231,9.9119,0.0010,0.0040,-0.0000,24.9100
17534953.0000,0.0423,0.0369,9.7619,0.0010,-0.0060,-0.0000,24.8600
17557953.0000,-0.0477,0.0069,9.8419,0.0010,0.0040,-0.0000,24.8600
17580953.0000,0.0523,0.0369,9.8419,0.0010,0.0040,-0.0000,24.9500
17603953.0000,-0.0277,-0.0231,9.9019,0.0010,-0.0060,-0.0000,24.9500
17626953.0000,-0.0277,0.0169,9.8719,0.0010,-0.0060,-0.0000,24.9100
17649953.0000,0.0723,0.0469,9.7719,0.0010,0.0040,-0.0000,24.9100
17672953.0000,-0.0077,-0.0331,9.8819,0.0010,0.0040,-0.0000,24.9100
17695953.0000,0.0023,-0.0331,9.7819,0.0010,-0.0060,-0.0000,24.8100
17718953.0000,-0.0177,-0.0131,9.8119,0.0010,-0.0060,-0.0000,24.8600
17741953.0000,0.0223,0.0169,9.7219,-0.0090,0.0040,-0.0000,24.8600
17764953.0000,-0.0077,-0.0031,9.7519,0.0010,-0.0060,-0.0000,24.8600
17787953.0000,-0.0277,-0.0831,9.8319,0.0010,-0.0060,-0.0000,24.8600
17810953.0000,-0.0277,0.0169,9.8219,0.0010,0.0040,-0.0000,24.8600
17833953.0000,-0.0277,-0.0331,9.8719,-0.0090,0.0040,-0.0000,24.9500
17856953.0000,0.0423,0.0169,9.8519,0.0010,-0.0060,-0.0000,24.9100
17879953.0000,-0.0077,-0.0331,9.8019,0.0010,0.0040,-0.0000,24.9100
17902953.0000,-0.0077,0.0069,9.8719,0.0010,-0.0060,-0.0000,24.9500
17925953.0000,0.0423,-0.0131,9.7919,0.0010,0.0040,-0.0000,24.8600
17948953.0000,-0.0477,0.0669,9.7519,0.0010,-0.0060,-0.0000,24.9500
17971953.0000,-0.0477,-0.0031,9.8219,0.0010,0.0040,-0.0000,24.9500
17994953.0000,0.0623,0.0869,9.8819,0.0010,-0.0060,-0.0000,24.9100
18017953.0000,-0.0177,-0.0331,9.8019,0.0010,0.0040,-0.0000,24.9100
18040953.0000,-0.0977,-0.0631,9.8119,0.0010,0.0040,-0.0000,25.0000
18063953.0000,0.0223,-0.0031,9.7819,0.0010,-0.0060,-0.0000,25.0000
18086953.0000,-0.0077,-0.0231,9.7919,0.0010,-0.0060,-0.0000,24.9100
18109953.0000,-0.0077,-0.0331,9.7819,0.0010,-0.0060,-0.0000,24.7700
18132953.0000,0.0123,-0.0131,9.8519,0.0010,-0.0060,-0.0000,24.8600
18155953.0000,-0.0477,0.0069,9.7119,0.0010,0.0040,-0.0000,24.8600
18178953.0000,-0.0677,0.0169,9.8119,0.0010,0.0040,-0.0000,24.9500
18201953.0000,0.0223,-0.0031,9.7619,0.0010,0.0040,-0.0000,24.9100
18224953.0000,0.0123,0.0369,9.8319,0.0010,-0.0060,-0.0000,24.8100
18247953.0000,0.0123,-0.0031,9.7919,0.0010,0.0040,-0.0000,24.9100
18270953.0000,0.0723,0.0269,9.7919,0.0010,0.0040,-0.0000,24.9100
18293953.0000,0.0423,-0.0331,9.8219,0.0010,-0.0060,-0.0000,24.8600
18316953.0000,0.0023,-0.0731,9.7619,0.0010,-0.0060,-0.0000,24.8600
18339953.0000,-0.0277,0.0169,9.9019,0.0010,0.0040,-0.0000,24.8600
18362953.0000,-0.0277,-0.0131,9.9019,0.0010,0.0040,-0.0000,24.8600
18385953.0000,0.0323,-0.0031,9.7519,0.0010,-0.0060,-0.0000,24.9100
18408953.0000,-0.0477,0.0169,9.7619,0.0010,-0.0060,-0.0000,24.8100
18431953.0000,-0.0077,0.0069,9.8419,-0.0090,-0.0060,-0.0000,24.9100
18454953.0000,-0.0277,0.0169,9.8019,-0.0090,-0.0060,-0.0000,24.9100
18477953.0000,-0.0477,0.0069,9.8519,0.0010,-0.0060,-0.0000,24.8600
18500953.0000,0.0123,-0.0031,9.7619,0.0010,-0.0060,-0.0000,24.8600
18523953.0000,0.0223,0.0769,9.7219,0.0010,0.0040,-0.0000,24.9500
18546953.0000,-0.0177,-0.0231,9.8219,-0.0090,-0.0060,-0.0000,24.8600
18569953.0000,-0.0477,0.0069,9.8019,0.0010,-0.0060,-0.0000,24.8600
18592953.0000,-0.0277,-0.0331,9.7919,0.0010,-0.0060,-0.0000,24.8600
18615953.0000,-0.0077,0.0569,9.8019,0.0010,-0.0060,-0.0000,24.8100
18638953.0000,0.0323,0.0069,9.8019,0.0010,-0.0060,-0.0000,24.8100
18661953.0000,-0.0077,0.0069,9.7719,0.0010,-0.0060,-0.0000,24.8600
18684953.0000,0.0723,-0.0031,9.8219,0.0010,-0.0060,-0.0000,24.9500
18707953.0000,-0.0577,0.0469,9.8019,0.0010,0.0040,-0.0000,24.8600
18730953.0000,0.0323,0.0269,9.8219,0.0010,0.0040,-0.0000,24.9500
18753953.0000,0.0223,-0.0131,9.7219,0.0010,0.0040,-0.0000,24.8600
18776953.0000,-0.0677,0.0069,9.8219,0.0010,-0.0060,-0.0000,24.8100
18799953.0000,-0.0277,-0.0231,9.7519,0.0010,0.0040,-0.0000,24.9100
18822953.0000,0.0123,-0.0931,9.8219,0.0010,0.0040,-0.0000,24.9100
18845953.0000,0.0323,-0.0331,9.7919,0.0010,0.0040,-0.0000,24.9100
18868953.0000,0.0123,0.0369,9.7719,0.0010,0.0040,-0.0000,24.8600
18891953.0000,0.0223,-0.0031,9.7619,0.0010,-0.0060,-0.0000,24.8600
18914953.0000,-0.0577,0.0169,9.8319,0.0010,-0.0060,-0.0000,24.9500
18937953.0000,-0.0177,-0.0231,9.7219,0.0010,0.0040,-0.0000,24.8600
18960953.0000,-0.0477,0.0069,9.7619,0.0010,-0.0060,-0.0000,24.9100
18983953.0000,0.0123,0.0069,9.8319,0.0010,0.0040,-0.0000,24.9100
19006953.0000,-0.0177,-0.0031,9.8619,0.0010,0.0040,-0.0000,24.9100
19029953.0000,0.0223,-0.0031,9.8319,0.0010,0.0040,-0.0000,24.8100
19052953.0000,-0.0277,0.0069,9.7819,0.0010,0.0040,-0.0000,24.8600
19075953.0000,0.0423,0.0169,9.8019,0.0010,-0.0060,-0.0000,24.9500
19098953.0000,-0.0377,-0.0031,9.8719,0.0010,-0.0060,-0.0000,24.9500
19121953.0000,0.0023,0.0069,9.8419,0.0010,-0.0060,-0.0000,24.8600
19144953.0000,-0.0277,0.0469,9.7919,0.0010,-0.0060,-0.0000,24.9100
19167953.0000,0.0023,0.0169,9.7419,0.0010,-0.0060,-0.0000,24.8100
19190953.0000,-0.0077,0.0669,9.8219,0.0010,-0.0060,-0.0000,24.9100
19213953.0000,0.0223,0.0169,9.7719,-0.0090,0.0040,-0.0000,24.8100
19236953.0000,-0.0277,-0.0031,9.8419,0.0010,0.0040,-0.0000,24.9500
19259953.0000,0.0123,-0.0731,9.6919,0.0010,-0.0060,-0.0000,24.8600
19282953.0000,0.0023,0.1269,9.8619,0.0010,-0.0060,-0.0000,24.8600
19305953.0000,0.0023,-0.0231,9.7319,0.0010,-0.0060,-0.0000,24.8600
19328953.0000,-0.0077,0.0069,9.8019,0.0010,0.0040,-0.0000,24.7700
19351953.0000,-0.0577,-0.0131,9.7519,0.0010,-0.0060,-0.0000,24.8600
19374953.0000,0.0023,0.0569,9.8119,0.0010,0.0040,-0.0000,24.9100
19397953.0000,-0.0077,0.0469,9.7919,0.0010,-0.0060,-0.0000,24.9100
19420953.0000,0.0523,0.0169,9.8119,0.0010,0.0040,-0.0000,24.9100
19443953.0000,0.0123,0.0469,9.8619,0.0010,-0.0060,-0.0000,24.8600
19466953.0000,0.0023,0.0169,9.8519,0.0010,0.0040,-0.0000,24.8600
19489953.0000,0.0123,0.0169,9.8219,0.0010,0.0040,-0.0000,24.9500
19512953.0000,-0.0377,0.0369,9.7019,0.0010,-0.0060,-0.0000,24.9500
19535953.0000,0.0323,-0.0031,9.7819,0.0010,-0.0060,-0.0000,25.0000
19558953.0000,-0.0077,0.0269,9.7719,0.0010,0.0040,-0.0000,24.8100
19581953.0000,0.0123,-0.0131,9.7519,0.0010,-0.0060,-0.0000,24.9100
19604953.0000,-0.0077,0.0169,9.8019,0.0010,0.0040,-0.0000,24.8100
19627953.0000,0.0123,-0.0131,9.8119,0.0010,0.0040,-0.0000,24.8600
19650953.0000,0.0323,0.0569,9.8619,0.0010,0.0040,-0.0000,24.8600
19673953.0000,-0.0377,-0.0531,9.7719,0.0010,0.0040,-0.0000,24.9500
19696953.0000,0.0223,-0.0331,9.8619,0.0010,-0.0060,-0.0000,24.8600
19719953.0000,0.0223,0.0269,9.8319,-0.0090,0.0040,-0.0000,24.9100
19742953.0000,0.0123,0.0569,9.8719,0.0010,-0.0060,-0.0000,24.8100
19765953.0000,0.0323,0.0369,9.8019,0.0010,-0.0060,-0.0000,24.9100
19788953.0000,0.0323,-0.0331,9.7919,-0.0090,-0.0060,-0.0000,24.9100
19811953.0000,0.0123,0.0369,9.8119,0.0010,-0.0060,-0.0000,24.8600
19834953.0000,0.0123,0.0169,9.7819,0.0010,0.0040,-0.0000,24.9500
19857953.0000,0.0323,-0.0131,9.8019,0.0010,0.0040,-0.0000,24.9500
19880953.0000,-0.0677,0.0769,9.8419,-0.0090,0.0040,-0.0000,24.7700
19903953.0000,0.0223,0.0169,9.7819,0.0010,0.0040,-0.0000,24.9100
19926953.0000,0.0123,0.0269,9.8819,0.0010,0.0040,-0.0000,24.8100
19949953.0000,0.1023,0.0169,9.7919,0.0010,0.0040,-0.0000,24.9100
19972953.0000,0.0123,-0.0131,9.8319,0.0010,0.0040,-0.0000,24.8100
19995953.0000,-0.0177,0.0169,9.7719,0.0010,0.0040,-0.0000,24.8600
20018953.0000,-0.0277,-0.0131,9.8419,0.0010,0.0040,-0.0000,24.8600
20041953.0000,-0.0177,-0.0331,9.8419,0.0010,0.0040,-0.0000,24.9500
20064953.0000,-0.0177,-0.0231,9.9019,0.0010,0.0040,-0.0000,24.9500
20087953.0000,-0.0077,0.0469,9.7819,0.0010,0.0040,-0.0000,24.8600
20110953.0000,0.0123,-0.0431,9.7819,0.0010,0.0040,-0.0000,24.8600
20133953.0000,-0.0077,0.0169,9.7719,-0.0090,0.0040,-0.0000,25.0000
20156953.0000,0.0323,0.0369,9.7519,-0.0090,-0.0060,-0.0000,24.9100
20179953.0000,-0.0077,0.0069,9.8519,0.0010,-0.0060,-0.0000,24.8100
20202953.0000,-0.0177,0.0069,9.8219,0.0010,0.0040,-0.0000,24.8600
20225953.0000,0.0223,0.0169,9.8619,0.0010,0.0040,-0.0000,24.9500
20248953.0000,-0.0577,0.0069,9.8319,0.0010,0.0040,-0.0000,24.8600
20271953.0000,0.0123,-0.0431,9.7419,0.0010,0.0040,-0.0000,24.8600
20294953.0000,-0.0577,0.0169,9.8619,0.0010,0.0040,-0.0000,24.9100
20317953.0000,-0.0477,0.0269,9.7719,0.0010,0.0040,-0.0000,24.9100
20340953.0000,-0.0177,-0.0331,9.7619,0.0010,0.0040,-0.0000,24.8100
20363953.0000,-0.0077,0.0969,9.7419,0.0010,0.0040,-0.0000,25.0000
20386953.0000,0.0123,-0.0431,9.7519,0.0010,-0.0060,-0.0000,24.8600
20409953.0000,0.0023,0.0269,9.8319,-0.0090,0.0040,-0.0000,24.8600
20432953.0000,-0.0077,0.0569,9.7819,0.0010,0.0040,-0.0000,24.9500
20455953.0000,-0.0377,0.0269,9.8319,0.0010,-0.0060,-0.0000,24.8600
20478953.0000,-0.0377,0.0069,9.7919,0.0010,0.0040,-0.0000,24.9100
20501953.0000,0.0323,-0.0031,9.8619,0.0010,-0.0060,-0.0000,24.9100
20524953.0000,-0.0577,0.0469,9.8519,0.0010,0.0040,-0.0000,24.9100
20547953.0000,-0.0077,0.0469,9.8219,0.0010,-0.0060,-0.0000,24.9100
20570953.0000,0.0223,0.0069,9.8019,0.0010,0.0040,-0.0000,24.8600
20593953.0000,-0.0177,-0.0131,9.7819,0.0010,0.0040,-0.0000,24.8600
20616953.0000,-0.0577,-0.0231,9.8819,0.0010,0.0040,-0.0000,24.8600
20639953.0000,0.0223,0.0069,9.7919,0.0010,-0.0060,-0.0000,24.8600
20662953.0000,0.0223,0.0369,9.8719,0.0010,0.0040,-0.0000,24.9100
20685953.0000,0.0023,-0.0231,9.8319,-0.0090,0.0040,-0.0000,24.8100
20708953.0000,-0.0577,-0.0231,9.8119,0.0010,0.0040,-0.0000,24.9100
20731953.0000,0.0023,-0.0131,9.8119,0.0010,0.0040,-0.0000,24.9100
20754953.0000,0.0123,-0.0131,9.7919,0.0010,0.0040,-0.0000,24.8600
20777953.0000,-0.0277,-0.0431,9.8919,-0.0090,0.0040,-0.0000,24.9500
20800953.0000,0.0323,-0.0631,9.7619,-0.0090,-0.0060,-0.0000,24.9500
20823953.0000,0.0623,-0.0331,9.7619,0.0010,-0.0060,-0.0000,24.9500
20846953.0000,0.0223,-0.0031,9.8419,0.0010,-0.0060,-0.0000,24.8600
20869953.0000,0.0423,-0.0431,9.7519,0.0010,-0.0060,-0.0000,24.9500
20892953.0000,-0.0677,0.0369,9.7419,0.0010,-0.0060,-0.0000,24.9100
20915953.0000,-0.0077,-0.0131,9.8219,0.0010,0.0040,-0.0000,24.8100
20938953.0000,-0.0377,-0.0131,9.7419,0.0010,0.0040,-0.0000,24.8100
20961953.0000,-0.0277,0.0269,9.7719,0.0010,0.0040,-0.0000,24.8600
20984953.0000,0.0123,0.0369,9.7619,0.0010,-0.0060,-0.0000,24.8600
21007953.0000,-0.0377,0.0069,9.8319,0.0010,0.0040,-0.0000,24.8600
21030953.0000,-0.0077,-0.0231,9.8219,0.0010,-0.0060,-0.0000,24.8600
21053953.0000,-0.0577,0.0469,9.7319,0.0010,0.0040,-0.0000,24.8100
21076953.0000,0.0023,-0.0131,9.7419,-0.0090,-0.0060,-0.0000,24.8100
21099953.0000,-0.0177,0.0269,9.7819,0.0010,-0.0060,-0.0000,24.9100
21122953.0000,-0.0177,-0.0331,9.7819,-0.0090,-0.0060,-0.0000,24.9100
21145953.0000,0.0023,-0.0231,9.7719,0.0010,0.0040,-0.0000,24.9500
21168953.0000,-0.0177,0.0269,9.7519,0.0010,-0.0060,-0.0000,24.8600
21191953.0000,0.0223,-0.0031,9.8519,0.0010,0.0040,-0.0000,24.8600
21214953.0000,0.0423,-0.0431,9.8619,0.0010,0.0040,-0.0000,24.8600
21237953.0000,0.0223,-0.0031,9.9019,0.0010,-0.0060,-0.0000,24.9100
21260953.0000,0.0323,0.0069,9.8419,0.0010,0.0040,-0.0000,24.9100
21283953.0000,0.0323,-0.0331,9.7419,0.0010,0.0040,-0.0000,24.9100
21306953.0000,-0.0277,0.0569,9.8419,0.0010,0.0040,-0.0000,24.8100
21329953.0000,-0.0277,0.0269,9.7719,0.0010,0.0040,-0.0000,24.8600
21352953.0000,-0.0477,-0.0131,9.8019,0.0010,0.0040,-0.0000,24.8600
21375953.0000,0.0323,-0.0031,9.7619,0.0010,0.0040,-0.0000,24.8600
21398953.0000,0.0023,0.0469,9.7419,0.0010,0.0040,-0.0000,24.9500
21421953.0000,0.0223,0.0069,9.8119,0.0010,0.0040,-0.0000,24.8100
21444953.0000,-0.0077,-0.0331,9.7619,0.0010,0.0040,-0.0000,24.9100
21467953.0000,0.0323,-0.0131,9.8519,0.0010,0.0040,-0.0000,24.9100
21490953.0000,-0.0077,-0.0331,9.8119,0.0010,-0.0060,-0.0000,24.9100
21513953.0000,-0.0177,0.0369,9.8219,0.0010,0.0040,-0.0000,24.8100
21536953.0000,-0.0177,-0.0331,9.7919,0.0010,-0.0060,-0.0000,24.8600
21559953.0000,-0.0177,0.0169,9.8519,0.0010,0.0040,-0.0000,24.8600
21582953.0000,0.0023,0.0169,9.8019,0.0010,0.0040,-0.0000,24.9500
21605953.0000,0.0323,-0.0331,9.8319,0.0010,0.0040,-0.0000,24.9500
21628953.0000,-0.0477,0.0069,9.9019,0.0010,-0.0060,-0.0000,24.8600
21651953.0000,-0.0177,0.0169,9.8219,0.0010,0.0040,-0.0000,24.8100
21674953.0000,-0.0077,0.0269,9.7719,0.0010,0.0040,-0.0000,24.9100
21697953.0000,0.0323,0.0069,9.7819,0.0010,-0.0060,-0.0000,24.9100
21720953.0000,0.0123,-0.0131,9.8419,0.0010,0.0040,-0.0000,24.8600
21743953.0000,0.0323,-0.0131,9.7319,0.0010,-0.0060,-0.0000,24.8600
21766953.0000,-0.0177,0.0169,9.7519,0.0010,0.0040,-0.0000,24.9500
21789953.0000,0.0123,-0.0031,9.8119,0.0010,-0.0060,-0.0000,24.8600
21812953.0000,0.0823,0.0169,9.8119,0.0010,-0.0060,-0.0000,24.8100
21835953.0000,-0.0277,0.0069,9.8119,0.0010,0.0040,-0.0000,24.9100
21858953.0000,-0.0077,0.0169,9.8019,0.0010,-0.0060,-0.0000,24.9100
21881953.0000,0.0123,0.0169,9.7919,0.0010,-0.0060,-0.0000,24.9100
21904953.0000,-0.0377,-0.0231,9.7319,0.0010,0.0040,-0.0000,24.9500
21927953.0000,0.0523,0.0069,9.7719,0.0010,-0.0060,-0.0000,24.8600
21950953.0000,-0.0077,-0.0031,9.8519,0.0010,0.0040,-0.0000,24.8600
21973953.0000,-0.0177,-0.0331,9.7619,0.0010,-0.0060,-0.0000,24.8600
21996953.0000,0.0223,0.0369,9.8219,0.0010,0.0040,-0.0000,24.9100
22019953.0000,-0.0077,-0.0231,9.7519,0.0010,0.0040,-0.0000,24.9100
22042953.0000,0.0023,0.0169,9.9119,0.0010,-0.0060,-0.0000,24.8100
22065953.0000,-0.0277,0.0169,9.8319,0.0010,-0.0060,-0.0000,25.0000
22088953.0000,0.0023,0.0069,9.8219,-0.0090,0.0040,-0.0000,24.8600
22111953.0000,-0.0077,-0.0131,9.8219,0.0010,-0.0060,-0.0000,24.9500
22134953.0000,0.0223,0.0269,9.7719,0.0010,0.0040,-0.0000,24.9500
22157953.0000,-0.0577,0.0069,9.8119,0.0010,0.0040,-0.0000,24.8600
22180953.0000,0.0423,-0.0231,9.8519,0.0010,0.0040,-0.0000,24.8600
22203953.0000,0.0423,-0.0031,9.8119,0.0010,-0.0060,-0.0000,24.9100
22226953.0000,0.0123,0.0169,9.8119,0.0010,-0.0060,-0.0000,24.9100
22249953.0000,0.0023,0.0169,9.9119,0.0010,0.0040,-0.0000,24.9100
22272953.0000,-0.0477,0.0169,9.7719,-0.0090,0.0040,-0.0000,24.8100
22295953.0000,-0.0177,0.0369,9.8519,0.0010,0.0040,-0.0000,24.8600
22318953.0000,0.0223,-0.0731,9.8519,0.0010,0.0040,-0.0000,24.8600
22341953.0000,0.0023,-0.0631,9.9119,0.0010,0.0040,-0.0000,24.9500
22364953.0000,-0.0177,0.0069,9.7719,-0.0090,-0.0060,-0.0000,24.8600
22387953.0000,-0.0277,-0.0431,9.8719,0.0010,0.0040,-0.0000,24.8600
22410953.0000,-0.0077,0.0569,9.8119,0.0010,0.0040,-0.0000,24.9100
22433953.0000,-0.0177,-0.0131,9.8419,0.0010,-0.0060,-0.0000,24.9100
22456953.0000,0.0023,-0.0231,9.7919,0.0010,0.0040,-0.0000,24.9100
22479953.0000,-0.0277,-0.0231,9.8319,0.0010,-0.0060,-0.0000,24.8600
22502953.0000,-0.0177,0.0169,9.8719,0.0010,0.0040,-0.0000,24.9500
22525953.0000,-0.0077,0.0269,9.7419,0.0010,0.0040,-0.0000,24.8600
22548953.0000,-0.0377,0.0069,9.7319,0.0010,-0.0060,-0.0000,24.9500
22571953.0000,0.0123,0.0269,9.9119,0.0010,0.0040,-0.0000,24.9100
22594953.0000,0.0123,0.0569,9.8819,0.0010,-0.0060,-0.0000,24.9100
22617953.0000,0.0223,-0.0331,9.7919,0.0010,0.0040,-0.0000,24.9100
22640953.0000,-0.0277,-0.0131,9.7819,0.0010,0.0040,-0.0000,24.9100
22663953.0000,-0.0177,-0.0431,9.8519,0.0010,0.0040,-0.0000,24.8600
22686953.0000,0.0323,-0.0131,9.8119,0.0010,-0.0060,-0.0000,24.8600
22709953.0000,0.0323,0.0069,9.7819,0.0010,-0.0060,-0.0000,24.8600
22732953.0000,-0.0277,0.0269,9.8419,0.0010,0.0040,-0.0000,24.9500
22755953.0000,-0.0177,0.0169,9.8619,0.0010,0.0040,-0.0000,24.9100
22778953.0000,-0.0577,0.0369,9.8019,0.0010,0.0040,-0.0000,24.9100
22801953.0000,-0.0377,-0.0331,9.7219,0.0010,0.0040,-0.0000,24.9100
22824953.0000,0.0323,0.0069,9.8219,-0.0090,0.0040,-0.0000,24.8100
22847953.0000,-0.0377,-0.0231,9.7919,0.0010,0.0040,-0.0000,24.8100
22870953.0000,-0.0677,-0.0131,9.8019,0.0010,0.0040,-0.0000,24.8600
22893953.0000,-0.0177,0.0169,9.7319,0.0010,-0.0060,-0.0000,24.9500
22916953.0000,-0.0777,-0.0131,9.8419,0.0010,0.0040,-0.0000,24.8600
22939953.0000,0.0323,0.0069,9.7719,0.0010,-0.0060,-0.0000,24.8600
22962953.0000,-0.0677,0.0269,9.8619,0.0010,-0.0060,-0.0000,25.0000
22985953.0000,-0.0377,0.0069,9.8119,0.0010,0.0040,-0.0000,24.9100
23008953.0000,-0.0177,0.0169,9.7719,0.0010,0.0040,-0.0000,24.9100
23031953.0000,-0.0677,-0.0131,9.7719,0.0010,-0.0060,-0.0000,24.9100
23054953.0000,-0.0177,-0.0231,9.8319,0.0010,-0.0060,-0.0000,24.8600
23077953.0000,-0.0077,0.0269,9.8919,0.0010,-0.0060,-0.0000,24.8600
23100953.0000,0.0223,0.0369,9.7719,0.0010,0.0040,-0.0000,24.8600
23123953.0000,0.0023,-0.0231,9.7619,0.0010,0.0040,-0.0000,24.9500
23146953.0000,-0.0277,0.0069,9.7619,0.0010,-0.0060,-0.0000,24.7700
23169953.0000,0.0423,-0.0431,9.8519,0.0010,0.0040,-0.0000,24.8100
23192953.0000,-0.0077,-0.0031,9.8219,0.0010,0.0040,-0.0000,24.9100
23215953.0000,-0.0077,0.0069,9.7719,0.0010,0.0040,-0.0000,24.9100
23238953.0000,0.0423,0.0169,9.7919,0.0010,-0.0060,-0.0000,24.9500
23261953.0000,-0.0277,0.0669,9.8419,0.0010,0.0040,-0.0000,24.8600
23284953.0000,0.0423,0.0169,9.8319,0.0010,0.0040,-0.0000,24.8600
23307953.0000,-0.0177,0.0169,9.8419,0.0010,0.0040,-0.0000,24.8600
23330953.0000,0.0123,-0.0031,9.7919,0.0010,0.0040,-0.0000,24.9100
23353953.0000,0.0023,-0.0431,9.8119,0.0010,-0.0060,-0.0000,24.9100
23376953.0000,-0.0177,0.0169,9.7819,0.0010,0.0040,-0.0000,24.9100
23399953.0000,-0.0577,-0.0131,9.8219,-0.0090,0.0040,-0.0000,24.9100
23422953.0000,0.0123,-0.0131,9.7319,0.0010,0.0040,-0.0000,24.8600
23445953.0000,-0.0277,0.0169,9.8119,0.0010,0.0040,-0.0000,24.8600
23468953.0000,-0.0077,0.0569,9.8819,0.0010,0.0040,-0.0000,24.9500
23491953.0000,-0.0277,0.0469,9.7419,0.0010,-0.0060,-0.0000,24.8600
23514953.0000,0.0323,-0.0331,9.7719,-0.0090,0.0040,-0.0000,24.8100
23537953.0000,0.0423,-0.0231,9.7619,0.0010,0.0040,-0.0000,24.9100
23560953.0000,-0.0077,-0.0231,9.8119,0.0010,-0.0060,-0.0000,24.8100
23583953.0000,0.0323,-0.0131,9.8119,0.0010,0.0040,-0.0000,24.9100
23606953.0000,0.0723,-0.0131,9.7719,-0.0090,-0.0060,-0.0000,24.9100
23629953.0000,0.0023,0.0269,9.7319,0.0010,-0.0060,-0.0000,24.8600
23652953.0000,0.0523,-0.0031,9.7719,0.0010,0.0040,-0.0000,24.7700
23675953.0000,0.0723,-0.0231,9.8819,0.0010,-0.0060,-0.0000,24.8600
23698953.0000,-0.0577,0.0169,9.7819,0.0010,-0.0060,-0.0000,24.8600
23721953.0000,-0.0377,-0.0231,9.7919,0.0010,0.0040,-0.0000,24.9100
23744953.0000,0.0823,0.0069,9.8919,0.0010,-0.0060,-0.0000,24.8100
23767953.0000,0.0323,-0.0131,9.8019,-0.0090,0.0040,-0.0000,24.9100
23790953.0000,0.0223,-0.0631,9.8319,0.0010,0.0040,-0.0000,24.9100
23813953.0000,0.0523,-0.0131,9.7819,0.0010,0.0040,-0.0000,24.8600
23836953.0000,-0.0077,-0.0231,9.7919,0.0010,0.0040,-0.0000,24.9500
23859953.0000,-0.0277,0.0069,9.7119,0.0010,0.0040,-0.0000,24.8600
23882953.0000,0.0123,-0.0031,9.8019,0.0010,-0.0060,-0.0000,24.8600
23905953.0000,-0.0477,-0.0331,9.7719,-0.0090,0.0040,-0.0000,24.9500
23928953.0000,0.0223,0.0169,9.7719,0.0010,0.0040,-0.0000,24.8600
23951953.0000,0.0023,0.0169,9.8819,0.0010,-0.0060,-0.0000,24.8100
23974953.0000,0.0423,-0.0731,9.8619,0.0010,-0.0060,-0.0000,24.9100
23997953.0000,0.0723,0.0069,9.7619,0.0010,-0.0060,-0.0000,24.9500
24020953.0000,0.0023,-0.0131,9.8419,0.0010,-0.0060,-0.0000,24.8600
24043953.0000,-0.0377,-0.0331,9.7719,0.0010,0.0040,-0.0000,24.8600
24066953.0000,-0.0277,-0.0031,9.8019,0.0010,0.0040,-0.0000,24.9500
24089953.0000,0.0223,0.0069,9.7619,0.0010,-0.0060,-0.0000,24.9100
24112953.0000,0.0523,-0.0031,9.7219,0.0010,0.0040,-0.0000,24.9100
24135953.0000,-0.0177,0.0069,9.7419,0.0010,-0.0060,-0.0000,24.9100
24158953.0000,-0.0277,0.0269,9.7919,0.0010,0.0040,-0.0000,24.9100
24181953.0000,-0.0377,-0.0331,9.8719,0.0010,0.0040,-0.0000,24.9500
24204953.0000,0.0523,-0.0031,9.8219,0.0010,-0.0060,-0.0000,24.8600
24227953.0000,0.0123,-0.0031,9.7919,0.0010,0.0040,-0.0000,24.8600
24250953.0000,-0.0277,-0.0731,9.8019,0.0010,-0.0060,-0.0000,24.9500
24273953.0000,0.0023,0.0169,9.8219,0.0010,-0.0060,-0.0000,24.8600
24296953.0000,-0.0277,-0.0531,9.8219,0.0010,-0.0060,-0.0000,24.9100
24319953.0000,-0.0177,0.0169,9.8219,0.0010,-0.0060,-0.0000,24.9100
24342953.0000,-0.0177,0.0069,9.7719,0.0010,-0.0060,-0.0000,25.0000
24365953.0000,-0.0177,0.0069,9.8519,0.0010,0.0040,-0.0000,24.9100
24388953.0000,-0.0477,-0.0231,9.7319,0.0010,-0.0060,-0.0000,24.8600
24411953.0000,-0.0277,0.0469,9.7419,0.0010,0.0040,-0.0000,24.9500
24434953.0000,0.0223,0.0569,9.8419,-0.0090,-0.0060,-0.0000,24.8600
24457953.0000,-0.0677,-0.0431,9.7619,0.0010,0.0040,-0.0000,24.9500
24480953.0000,-0.0677,0.0069,9.7819,0.0010,0.0040,-0.0000,25.0000
24503953.0000,0.0223,-0.0031,9.7919,-0.0090,-0.0060,-0.0000,24.8100
24526953.0000,-0.0177,0.0469,9.9019,0.0010,0.0040,-0.0000,24.9100
24549953.0000,0.0323,-0.0731,9.8419,0.0010,0.0040,-0.0000,24.9100
24572953.0000,-0.0477,-0.0231,9.7819,0.0010,0.0040,-0.0000,24.8600
24595953.0000,-0.0177,-0.0331,9.7419,0.0010,-0.0060,-0.0000,24.8600
24618953.0000,-0.0377,-0.0031,9.8119,0.0010,-0.0060,-0.0000,24.7700
24641953.0000,-0.0077,0.0069,9.8319,0.0010,0.0040,-0.0000,24.8600
24664953.0000,0.0523,-0.0531,9.7819,0.0010,0.0040,-0.0000,24.8600
24687953.0000,0.0023,-0.0131,9.7819,-0.0090,0.0040,-0.0000,24.8600
24710953.0000,-0.0177,0.0169,9.8319,0.0010,0.0040,-0.0000,24.9100
24733953.0000,0.0523,0.0069,9.7919,0.0010,0.0040,-0.0000,24.9100
24756953.0000,0.0223,0.0269,9.7919,0.0010,0.0040,-0.0000,24.8600
24779953.0000,-0.0277,-0.0331,9.8719,0.0010,0.0040,-0.0000,24.8600
24802953.0000,0.0423,-0.0031,9.8719,0.0010,0.0040,-0.0000,24.9500
24825953.0000,-0.0477,-0.0331,9.8319,0.0010,0.0040,-0.0000,24.8600
24848953.0000,-0.0277,0.0269,9.7619,0.0010,-0.0060,-0.0000,24.9100
24871953.0000,-0.0177,0.0069,9.7919,0.0010,0.0040,-0.0000,24.9100
24894953.0000,0.0423,-0.0231,9.7819,0.0010,0.0040,-0.0000,24.9100
24917953.0000,0.0223,0.0369,9.8519,0.0010,0.0040,-0.0000,24.9100
24940953.0000,0.0123,-0.0131,9.7219,0.0010,0.0040,-0.0000,24.9100
24963953.0000,0.0423,0.0069,9.8119,-0.0090,0.0040,-0.0000,24.8600
24986953.0000,0.0023,-0.0131,9.7519,0.0010,0.0040,-0.0000,24.9500
25009953.0000,0.0423,-0.0031,9.7919,0.0010,0.0040,-0.0000,24.8600
25032953.0000,-0.0377,-0.0031,9.7119,0.0010,0.0040,-0.0000,24.8600
25055953.0000,0.0023,0.0469,9.8019,0.0010,-0.0060,-0.0000,24.9100
25078953.0000,0.0123,0.0069,9.8419,0.0010,0.0040,-0.0000,24.8100
25101953.0000,0.0023,0.0069,9.8419,0.0010,-0.0060,-0.0000,24.9100
25124953.0000,-0.0277,-0.0131,9.7419,0.0010,-0.0060,-0.0000,24.9100
25147953.0000,0.0123,0.0169,9.9119,0.0010,0.0040,-0.0000,24.9500
25170953.0000,-0.0277,0.0469,9.7819,0.0010,0.0040,-0.0000,24.7700
25193953.0000,0.0323,0.0369,9.8119,0.0010,0.0040,-0.0000,24.9500
25216953.0000,0.0323,0.0569,9.7719,0.0010,0.0040,-0.0000,24.8600
25239953.0000,0.0023,-0.0531,9.8619,0.0010,0.0040,-0.0000,24.8100
25262953.0000,0.0523,-0.0431,9.8219,0.0010,-0.0060,-0.0000,24.9100
25285953.0000,-0.0077,0.0569,9.7219,0.0010,0.0040,-0.0000,24.9100
25308953.0000,-0.0477,0.0269,9.8519,0.0010,0.0040,-0.0000,24.8100
25331953.0000,-0.0177,0.0269,9.7719,0.0010,0.0040,-0.0000,24.7700
25354953.0000,0.0123,-0.0631,9.8119,0.0010,0.0040,-0.0000,24.8600
25377953.0000,-0.0177,-0.0131,9.7819,0.0010,0.0040,-0.0000,24.8600
25400953.0000,-0.0477,-0.0231,9.7719,0.0010,-0.0060,-0.0000,24.8600
25423953.0000,0.0223,0.0069,9.8119,-0.0090,0.0040,-0.0000,24.7700
25446953.0000,-0.0177,0.0269,9.8419,0.0010,-0.0060,-0.0000,24.8600
25469953.0000,0.0123,-0.0131,9.7519,0.0010,-0.0060,-0.0000,24.9100
25492953.0000,0.0223,-0.0431,9.8019,0.0010,0.0040,-0.0000,24.8100
25515953.0000,-0.0077,-0.0331,9.8519,0.0010,0.0040,-0.0000,24.7700
25538953.0000,-0.0277,-0.0031,9.7619,0.0010,-0.0060,-0.0000,24.8600
25561953.0000,0.0023,-0.0331,9.7719,-0.0090,-0.0060,-0.0000,24.9500
25584953.0000,0.0023,0.0469,9.8119,0.0010,0.0040,-0.0000,24.8600
25607953.0000,0.0223,0.0169,9.8419,0.0010,-0.0060,-0.0000,24.9500
25630953.0000,0.0223,-0.0131,9.7719,0.0010,-0.0060,-0.0000,24.9100
25653953.0000,0.0123,-0.0031,9.7019,0.0010,0.0040,-0.0000,24.8100
25676953.0000,-0.0077,0.0069,9.8219,0.0010,0.0040,-0.0000,24.8100
25699953.0000,0.0723,-0.0131,9.7719,0.0010,0.0040,-0.0000,24.9100
25722953.0000,-0.0177,0.0069,9.8919,0.0010,0.0040,-0.0000,24.8600
25745953.0000,0.0423,-0.0531,9.7319,0.0010,0.0040,-0.0000,24.8600
25768953.0000,-0.0077,0.0269,9.7919,0.0010,0.0040,-0.0000,24.8600
25791953.0000,0.0823,-0.0431,9.7819,-0.0090,0.0040,-0.0000,24.9500
25814953.0000,0.0123,0.0069,9.8219,0.0010,0.0040,-0.0000,24.9100
25837953.0000,0.0323,0.0369,9.7219,0.0010,0.0040,-0.0000,24.9100
25860953.0000,0.0323,0.0469,9.7719,0.0010,0.0040,-0.0000,24.9100
25883953.0000,-0.0177,-0.0331,9.8919,0.0010,0.0040,-0.0000,24.9100
25906953.0000,-0.0577,0.0369,9.8419,0.0010,-0.0060,-0.0000,24.9500
25929953.0000,-0.0077,-0.0031,9.7819,0.0010,0.0040,-0.0000,24.8600
25952953.0000,0.0323,0.0169,9.7419,0.0010,-0.0060,-0.0000,24.8600
25975953.0000,-0.0177,-0.0331,9.8319,0.0010,0.0040,-0.0000,24.8600
25998953.0000,0.0123,-0.0531,9.7819,0.0010,0.0040,-0.0000,24.9100
26021953.0000,0.0223,0.0069,9.8319,0.0010,0.0040,-0.0000,24.9100
26044953.0000,0.0123,0.0069,9.7119,0.0010,0.0040,-0.0000,24.8100
26067953.0000,0.0323,-0.0331,9.8519,0.0010,0.0040,-0.0000,24.9100
26090953.0000,-0.0177,-0.0031,9.7519,0.0010,-0.0060,-0.0000,24.8600
26113953.0000,0.0323,0.0269,9.8319,0.0010,0.0040,-0.0000,24.8600
26136953.0000,-0.0577,0.0169,9.7919,0.0010,-0.0060,-0.0000,24.9500
26159953.0000,-0.0377,0.0069,9.8619,0.0010,-0.0060,-0.0000,24.9500
26182953.0000,0.0323,-0.0131,9.7819,0.0010,0.0040,-0.0000,24.8600
26205953.0000,-0.0077,0.0169,9.8219,-0.0090,-0.0060,-0.0000,24.8600
26228953.0000,-0.0077,0.0269,9.7619,-0.0090,0.0040,-0.0000,24.9100
26251953.0000,0.0123,-0.0731,9.7619,0.0010,0.0040,-0.0000,24.8100
26274953.0000,0.0023,0.0569,9.7719,0.0010,-0.0060,-0.0000,24.8600
26297953.0000,-0.0577,0.0269,9.7419,-0.0090,0.0040,-0.0000,24.8600
26320953.0000,-0.0277,-0.0231,9.7919,0.0010,0.0040,-0.0000,24.8600
26343953.0000,-0.0377,-0.0231,9.7619,0.0010,-0.0060,-0.0000,24.9500
26366953.0000,-0.0477,-0.0131,9.7819,0.0010,0.0040,-0.0000,24.8600
26389953.0000,0.0023,-0.0131,9.7619,-0.0090,-0.0060,-0.0000,24.9100
26412953.0000,0.0023,0.0269,9.7719,0.0010,-0.0060,-0.0000,24.9100
26435953.0000,0.0023,0.0369,9.7919,0.0010,0.0040,-0.0000,24.9100
26458953.0000,-0.0177,0.0769,9.7919,0.0010,-0.0060,-0.0000,24.9100
26481953.0000,0.0323,0.0169,9.7619,0.0010,-0.0060,-0.0000,24.9500
26504953.0000,0.0423,0.0269,9.7319,0.0010,-0.0060,-0.0000,24.8600
26527953.0000,-0.0677,-0.0031,9.8819,0.0010,0.0040,-0.0000,24.9500
26550953.0000,0.0123,0.0069,9.8119,0.0010,0.0040,-0.0000,24.9500
26573953.0000,0.0123,0.0169,9.8519,0.0010,-0.0060,-0.0000,24.8100
26596953.0000,-0.0277,0.0169,9.8119,0.0010,0.0040,-0.0000,24.9100
26619953.0000,-0.0277,-0.0031,9.8319,0.0010,-0.0060,-0.0000,24.9100
26642953.0000,-0.0277,0.0069,9.8219,0.0010,0.0040,-0.0000,24.8100
26665953.0000,0.0023,-0.0331,9.7619,0.0010,-0.0060,-0.0000,24.9500
26688953.0000,0.0023,0.0069,9.7519,0.0010,0.0040,-0.0000,24.8600
26711953.0000,0.0423,0.0469,9.8919,0.0010,0.0040,-0.0000,24.8600
26734953.0000,-0.0077,-0.0631,9.8219,0.0010,-0.0060,-0.0000,24.9500
26757953.0000,-0.0277,0.0069,9.8619,0.0010,-0.0060,-0.0000,24.9100
26780953.0000,0.0223,-0.0331,9.8219,0.0010,-0.0060,-0.0000,24.9100
26803953.0000,-0.0077,-0.0031,9.8919,0.0010,-0.0060,-0.0000,25.0000
26826953.0000,0.0223,-0.0031,9.7819,0.0010,0.0040,-0.0000,24.8100
26849953.0000,0.0523,-0.0231,9.8219,0.0010,0.0040,-0.0000,24.9500
26872953.0000,0.0023,0.0169,9.8119,0.0010,0.0040,-0.0000,24.9500
26895953.0000,-0.0177,0.0169,9.7419,0.0010,0.0040,-0.0000,24.9500
26918953.0000,0.0123,0.0069,9.7619,0.0010,0.0040,-0.0000,24.9500
26941953.0000,0.0023,0.0069,9.8219,0.0010,0.0040,-0.0000,24.8600
26964953.0000,0.0423,0.0269,9.7719,0.0010,-0.0060,-0.0000,24.8600
26987953.0000,0.0323,0.0669,9.8419,0.0010,0.0040,-0.0000,24.9100
27010953.0000,0.0123,-0.0131,9.8519,0.0010,-0.0060,-0.0000,24.9100
27033953.0000,-0.0477,-0.0231,9.7819,0.0010,-0.0060,-0.0000,24.9100
27056953.0000,0.0123,0.0169,9.7919,0.0010,0.0040,-0.0000,24.8600
27079953.0000,-0.0577,-0.0331,9.8119,0.0010,0.0040,-0.0000,24.8600
27102953.0000,0.0123,0.0669,9.8319,0.0010,0.0040,-0.0000,24.9500
27125953.0000,0.0023,-0.0831,9.8419,0.0010,0.0040,-0.0000,24.9500
27148953.0000,0.0123,0.0269,9.8419,0.0010,0.0040,-0.0000,24.9100
27171953.0000,-0.0277,-0.0331,9.8019,-0.0090,0.0040,-0.0000,24.9100
27194953.0000,0.0123,0.0069,9.7819,0.0010,0.0040,-0.0000,24.9100
27217953.0000,0.0223,-0.0431,9.7719,-0.0090,-0.0060,-0.0000,24.8100
27240953.0000,0.0323,-0.0131,9.7419,0.0010,0.0040,-0.0000,24.8600
27263953.0000,0.0123,0.0069,9.8219,0.0010,0.0040,-0.0000,24.8600
27286953.0000,-0.0277,-0.0231,9.8819,0.0010,-0.0060,-0.0000,24.8600
27309953.0000,0.0423,-0.0731,9.8119,0.0010,-0.0060,-0.0000,24.8600
27332953.0000,0.0423,-0.0231,9.9219,0.0010,-0.0060,-0.0000,24.9100
27355953.0000,0.0323,-0.0231,9.8119,0.0010,-0.0060,-0.0000,24.8100
27378953.0000,-0.0077,0.0169,9.9319,0.0010,-0.0060,-0.0000,24.9100
27401953.0000,-0.0177,-0.0231,9.7719,0.0010,-0.0060,-0.0000,24.8100
27424953.0000,-0.0277,-0.0331,9.9019,0.0010,-0.0060,-0.0000,24.8600
27447953.0000,-0.0077,-0.0631,9.6819,0.0010,-0.0060,-0.0000,24.8600
27470953.0000,0.0123,0.0269,9.8119,0.0010,0.0040,-0.0000,24.8600
27493953.0000,-0.0077,-0.0631,9.6919,0.0010,0.0040,-0.0000,24.9500
27516953.0000,0.0323,0.0369,9.7919,0.0010,-0.0060,-0.0000,24.9100
27539953.0000,0.0323,-0.0131,9.7519,0.0010,0.0040,-0.0000,24.9100
27562953.0000,-0.0177,-0.0131,9.9119,-0.0090,0.0040,-0.0000,24.9100
27585953.0000,0.0023,-0.0131,9.8319,0.0010,-0.0060,-0.0000,24.9100
27608953.0000,-0.0377,0.0069,9.8919,-0.0090,0.0040,-0.0000,24.8600
27631953.0000,-0.0677,-0.0431,9.8419,0.0010,-0.0060,-0.0000,24.8600
27654953.0000,-0.0377,-0.0031,9.7819,0.0010,-0.0060,-0.0000,24.8600
27677953.0000,-0.0177,0.0169,9.8219,0.0010,0.0040,-0.0000,24.8600
27700953.0000,0.0123,0.0169,9.8219,0.0010,-0.0060,-0.0000,24.9500
27723953.0000,-0.0177,0.0069,9.7719,-0.0090,0.0040,-0.0000,24.9500
27746953.0000,0.0923,0.0369,9.7119,-0.0090,0.0040,-0.0000,24.9100
27769953.0000,0.0323,0.0069,9.8519,0.0010,0.0040,-0.0000,24.9100
27792953.0000,-0.0177,-0.0531,9.8019,0.0010,0.0040,-0.0000,24.9100
27815953.0000,-0.0177,-0.0131,9.8919,0.0010,0.0040,-0.0000,24.7700
27838953.0000,-0.0177,-0.0031,9.8219,0.0010,-0.0060,-0.0000,24.8600
27861953.0000,-0.0277,-0.0131,9.8319,0.0010,0.0040,-0.0000,24.8600
27884953.0000,-0.0177,0.0269,9.8119,0.0010,-0.0060,-0.0000,24.8600
27907953.0000,0.0423,-0.0031,9.7819,0.0010,0.0040,-0.0000,24.9100
27930953.0000,0.0123,0.0469,9.8119,-0.0090,0.0040,-0.0000,24.9100
27953953.0000,-0.0277,0.0169,9.8219,0.0010,-0.0060,-0.0000,24.9100
27976953.0000,0.0123,0.0169,9.7519,0.0010,0.0040,-0.0000,24.9100
27999953.0000,0.0423,0.0169,9.8519,0.0010,-0.0060,-0.0000,24.8600
28022953.0000,0.0223,-0.0031,9.8219,0.0010,0.0040,-0.0000,24.9500
28045953.0000,-0.0577,0.0469,9.8119,0.0010,0.0040,-0.0000,24.9500
28068953.0000,-0.0077,0.0169,9.6919,0.0010,-0.0060,-0.0000,24.8600
28091953.0000,-0.0277,-0.0531,9.8319,0.0010,0.0040,-0.0000,24.9100
28114953.0000,-0.0577,0.0169,9.8619,0.0010,0.0040,-0.0000,24.9100
28137953.0000,0.0223,-0.0331,9.7919,0.0010,-0.0060,-0.0000,25.0000
28160953.0000,-0.0277,0.0269,9.8219,0.0010,0.0040,-0.0000,24.9100
28183953.0000,-0.0477,0.0069,9.7519,0.0010,-0.0060,-0.0000,24.8600
28206953.0000,0.0523,-0.0131,9.8619,0.0010,-0.0060,-0.0000,24.9500
28229953.0000,-0.0277,-0.0331,9.8519,-0.0090,0.0040,-0.0000,24.8600
28252953.0000,0.0123,-0.0531,9.7719,0.0010,-0.0060,-0.0000,24.8600
28275953.0000,0.0123,0.0269,9.7819,0.0010,0.0040,-0.0000,24.9100
28298953.0000,-0.0977,0.0169,9.8619,0.0010,-0.0060,-0.0000,24.8100
28321953.0000,-0.0077,-0.0231,9.7719,0.0010,-0.0060,-0.0000,24.8100
28344953.0000,-0.0177,0.0669,9.8219,0.0010,0.0040,-0.0000,24.9100
28367953.0000,-0.0077,-0.0531,9.8019,0.0010,0.0040,-0.0000,24.9100
28390953.0000,0.0123,-0.0331,9.8319,0.0010,0.0040,-0.0000,24.8600
28413953.0000,0.0023,0.0069,9.7419,0.0010,-0.0060,-0.0000,24.8600
28436953.0000,0.0023,0.0169,9.7819,0.0010,0.0040,-0.0000,24.8600
28459953.0000,-0.0077,0.0669,9.8619,0.0010,0.0040,-0.0000,24.8600
28482953.0000,-0.0677,-0.0031,9.8419,0.0010,-0.0060,-0.0000,24.8600
28505953.0000,-0.0377,0.0469,9.7719,0.0010,-0.0060,-0.0000,24.8100
28528953.0000,0.0123,-0.0031,9.8719,0.0010,0.0040,-0.0000,24.9100
28551953.0000,0.0323,-0.0031,9.8619,-0.0090,0.0040,-0.0000,24.8100
28574953.0000,-0.0077,0.0569,9.7419,0.0010,0.0040,-0.0000,24.9500
28597953.0000,-0.0277,-0.0231,9.8619,0.0010,0.0040,-0.0000,24.8600
28620953.0000,-0.0077,-0.0031,9.8219,-0.0090,-0.0060,-0.0000,24.8600
28643953.0000,0.0623,-0.0231,9.7719,0.0010,0.0040,-0.0000,24.8600
28666953.0000,0.0523,0.0569,9.8619,0.0010,-0.0060,-0.0000,24.9100
28689953.0000,-0.0277,0.0369,9.8319,0.0010,0.0040,-0.0000,24.9100
28712953.0000,0.0123,0.0269,9.7819,0.0010,-0.0060,-0.0000,25.0000
28735953.0000,0.0023,0.0069,9.7619,0.0010,-0.0060,-0.0000,24.9100
28758953.0000,0.0123,-0.0631,9.7419,0.0010,0.0040,-0.0000,24.8600
28781953.0000,0.0623,-0.0331,9.8119,0.0010,-0.0060,-0.0000,24.9500
28804953.0000,-0.0177,0.0269,9.8019,-0.0090,-0.0060,-0.0000,24.8600
28827953.0000,0.0023,-0.0231,9.8219,0.0010,0.0040,-0.0000,24.9500
28850953.0000,-0.0077,0.0169,9.8319,0.0010,0.0040,-0.0000,24.9100
28873953.0000,-0.0577,-0.0031,9.8219,0.0010,0.0040,-0.0000,24.9100
28896953.0000,0.0123,-0.0531,9.7919,0.0010,-0.0060,-0.0000,24.8100
28919953.0000,-0.0077,0.0269,9.8219,0.0010,0.0040,-0.0000,24.9100
28942953.0000,-0.0477,0.0069,9.9319,0.0010,-0.0060,-0.0000,24.8600
28965953.0000,0.0223,0.0369,9.8019,0.0010,-0.0060,-0.0000,24.9500
28988953.0000,-0.0077,-0.0531,9.8119,0.0010,0.0040,-0.0000,24.8600
29011953.0000,0.0123,0.0369,9.8019,0.0010,-0.0060,-0.0000,24.8600
29034953.0000,-0.0377,-0.0331,9.8519,0.0010,0.0040,-0.0000,24.9100
29057953.0000,0.0523,-0.0031,9.8219,0.0010,-0.0060,-0.0000,24.9100
29080953.0000,0.0623,-0.0131,9.8719,0.0010,-0.0060,-0.0000,24.8100
29103953.0000,-0.0577,0.0069,9.8219,0.0010,0.0040,-0.0000,24.9100
29126953.0000,-0.0377,-0.0331,9.7619,0.0010,0.0040,-0.0000,24.9100
29149953.0000,-0.0577,0.0069,9.8319,0.0010,0.0040,-0.0000,24.9500
29172953.0000,0.0323,0.0169,9.8619,0.0010,0.0040,-0.0000,24.8600
29195953.0000,0.0423,0.0669,9.7219,0.0010,-0.0060,-0.0000,24.9500
29218953.0000,0.0623,0.0269,9.8019,0.0010,-0.0060,-0.0000,24.8600
29241953.0000,0.0023,0.0169,9.8319,0.0010,0.0040,-0.0000,24.8600
29264953.0000,-0.0477,-0.0131,9.7719,0.0010,0.0040,-0.0000,25.0000
29287953.0000,-0.0177,-0.0131,9.7819,0.0010,0.0040,-0.0000,24.9100
29310953.0000,-0.0277,0.0669,9.7919,0.0010,0.0040,-0.0000,24.9100
29333953.0000,-0.1077,0.0169,9.8319,0.0010,-0.0060,-0.0000,24.8600
29356953.0000,-0.0477,0.0269,9.7619,0.0010,-0.0060,-0.0000,24.9500
29379953.0000,0.0123,-0.0231,9.7219,0.0010,0.0040,-0.0000,24.8600
29402953.0000,0.0023,-0.0231,9.6619,0.0010,-0.0060,-0.0000,24.8600
29425953.0000,0.0123,-0.0231,9.8219,0.0010,0.0040,-0.0000,24.9100
29448953.0000,-0.0077,0.0169,9.7819,-0.0090,0.0040,-0.0000,24.9100
29471953.0000,-0.0777,-0.0031,9.7819,0.0010,-0.0060,-0.0000,24.8100
29494953.0000,-0.0077,0.0069,9.7619,0.0010,0.0040,-0.0000,24.9100
29517953.0000,0.0123,-0.0031,9.8119,-0.0090,0.0040,-0.0000,24.8600
29540953.0000,0.0723,-0.0031,9.7819,0.0010,0.0040,-0.0000,24.7700
29563953.0000,-0.0177,-0.0331,9.8519,-0.0090,0.0040,-0.0000,24.8600
29586953.0000,-0.0277,0.0769,9.7919,0.0010,0.0040,-0.0000,24.8600
29609953.0000,0.0223,0.0669,9.8219,-0.0090,0.0040,-0.0000,24.9100
29632953.0000,0.0223,-0.0531,9.7919,0.0010,0.0040,-0.0000,24.9100
29655953.0000,0.0723,-0.0231,9.8519,0.0010,0.0040,-0.0000,24.9100
29678953.0000,-0.0377,0.0069,9.7619,0.0010,0.0040,-0.0000,24.8100
29701953.0000,-0.0077,0.0369,9.7619,0.0010,0.0040,-0.0000,24.7700
29724953.0000,-0.0277,-0.0131,9.7319,0.0010,-0.0060,-0.0000,24.8600
29747953.0000,0.0523,-0.0031,9.8319,0.0010,0.0040,-0.0000,24.8600
29770953.0000,0.0523,0.0369,9.8319,0.0010,0.0040,-0.0000,24.8600
29793953.0000,0.0123,-0.0131,9.8019,0.0010,0.0040,-0.0000,24.8600
29816953.0000,0.0023,-0.0231,9.7319,0.0010,-0.0060,-0.0000,24.9100
29839953.0000,0.0023,-0.0131,9.8519,0.0010,-0.0060,-0.0000,25.0000
29862953.0000,-0.0077,-0.0131,9.7519,0.0010,-0.0060,-0.0000,24.8100
29885953.0000,-0.0277,0.0169,9.8519,-0.0090,0.0040,-0.0000,24.8100
29908953.0000,-0.0877,-0.0231,9.7819,0.0010,-0.0060,-0.0000,24.8600
29931953.0000,0.0323,-0.0231,9.8119,0.0010,-0.0060,-0.0000,24.9500
29954953.0000,0.0023,0.0169,9.7819,0.0010,-0.0060,-0.0000,24.7700
29977953.0000,-0.0177,-0.0231,9.8119,0.0010,0.0040,-0.0000,24.8600
30000953.0000,0.0023,-0.0231,9.8619,-0.0090,-0.0060,-0.0000,24.8600
30023953.0000,0.0123,-0.0531,9.7819,0.0010,-0.0060,-0.0000,24.9100
30046953.0000,0.0023,-0.0531,9.8819,0.0010,-0.0060,-0.0000,24.9100
30069953.0000,0.0023,-0.0231,9.8019,-0.0090,0.0040,-0.0000,24.9100
30092953.0000,-0.0077,0.0469,9.7719,0.0010,0.0040,-0.0000,24.8600
30115953.0000,-0.0377,0.0669,9.8219,0.0010,0.0040,-0.0000,24.8600
30138953.0000,-0.0377,-0.0231,9.7919,0.0010,0.0040,-0.0000,24.8600
30161953.0000,0.0223,-0.0031,9.8019,0.0010,0.0040,-0.0000,24.8600
30184953.0000,0.0023,-0.0031,9.7519,-0.0090,0.0040,-0.0000,24.9100
30207953.0000,-0.0077,0.0269,9.8319,0.0010,-0.0060,-0.0000,24.9100
30230953.0000,-0.0077,-0.0131,9.7619,0.0010,-0.0060,-0.0000,24.9100
30253953.0000,0.0023,0.0069,9.8119,0.0010,0.0040,-0.0000,24.8100
30276953.0000,-0.0277,0.0569,9.9019,0.0010,-0.0060,-0.0000,24.8600
30299953.0000,-0.0177,0.0269,9.8819,-0.0090,-0.0060,-0.0000,24.9500
30322953.0000,-0.0477,0.0069,9.8119,0.0010,0.0040,-0.0000,24.8600
30345953.0000,-0.0177,0.0069,9.8919,0.0010,0.0040,-0.0000,24.7700
30368953.0000,0.0123,-0.0031,9.8319,0.0010,0.0040,-0.0000,24.9100
30391953.0000,0.0323,-0.0131,9.7719,0.0010,-0.0060,-0.0000,24.9100
30414953.0000,-0.0077,-0.0131,9.8019,0.0010,0.0040,-0.0000,24.9100
30437953.0000,0.0723,0.0769,9.8119,0.0010,-0.0060,-0.0000,24.8100
30460953.0000,0.0023,0.0169,9.7719,0.0010,0.0040,-0.0000,24.8100
30483953.0000,-0.0177,0.0269,9.8619,0.0010,-0.0060,-0.0000,24.8600
30506953.0000,-0.0377,-0.0231,9.7819,-0.0090,-0.0060,-0.0000,24.8600
30529953.0000,-0.0277,-0.0231,9.8019,0.0010,-0.0060,-0.0000,24.8600
30552953.0000,0.0123,-0.0031,9.7219,0.0010,0.0040,-0.0000,24.9500
30575953.0000,0.0423,-0.0231,9.9019,0.0010,-0.0060,-0.0000,24.9100
30598953.0000,-0.0277,0.0069,9.7319,-0.0090,-0.0060,-0.0000,24.9100
30621953.0000,-0.0077,-0.0331,9.8619,0.0010,-0.0060,-0.0000,24.9100
30644953.0000,-0.0177,-0.0231,9.8419,0.0010,-0.0060,-0.0000,24.9100
30667953.0000,0.0323,-0.0231,9.8519,0.0010,0.0040,-0.0000,24.9500
30690953.0000,0.0323,-0.0331,9.8919,0.0010,0.0040,-0.0000,24.8600
30713953.0000,0.0323,0.0069,9.9319,0.0010,0.0040,-0.0000,24.8600
30736953.0000,0.0323,0.0069,9.8519,0.0010,0.0040,-0.0000,24.8600
30759953.0000,-0.0177,0.0369,9.7919,0.0010,-0.0060,-0.0000,24.8600
30782953.0000,0.0023,0.0069,9.7719,0.0010,0.0040,-0.0000,24.8600
30805953.0000,0.0023,-0.0031,9.8219,0.0010,0.0040,-0.0000,25.0000
30828953.0000,0.0123,0.0069,9.7119,0.0010,0.0040,-0.0000,25.0000
30851953.0000,-0.0277,-0.0131,9.7419,0.0010,0.0040,-0.0000,24.8600
30874953.0000,-0.0177,-0.0131,9.8219,0.0010,0.0040,-0.0000,24.9500
30897953.0000,0.0323,-0.0231,9.8119,0.0010,0.0040,-0.0000,24.8600
30920953.0000,-0.0577,-0.0031,9.8619,0.0010,0.0040,-0.0000,24.9500
30943953.0000,0.0023,0.0369,9.8219,0.0010,0.0040,-0.0000,24.9100
30966953.0000,-0.0077,-0.0431,9.8219,0.0010,-0.0060,-0.0000,24.9100
30989953.0000,-0.0277,0.0069,9.8119,0.0010,0.0040,-0.0000,24.9100
31012953.0000,0.0223,-0.0431,9.7719,0.0010,0.0040,-0.0000,24.9100
31035953.0000,0.0423,0.0469,9.8019,0.0010,0.0040,-0.0000,24.8600
31058953.0000,0.0423,-0.0331,9.7719,0.0010,0.0040,-0.0000,24.8600
31081953.0000,0.0723,-0.0131,9.8319,0.0010,0.0040,-0.0000,24.8600
31104953.0000,0.0123,-0.0131,9.7719,0.0010,0.0040,-0.0000,24.8600
31127953.0000,-0.0077,-0.0331,9.8319,0.0010,0.0040,-0.0000,24.8600
31150953.0000,-0.0477,-0.0031,9.7819,0.0010,0.0040,-0.0000,24.7200
31173953.0000,0.0223,-0.0131,9.8019,0.0010,-0.0060,-0.0000,24.9100
31196953.0000,0.0323,-0.0031,9.7719,0.0010,0.0040,-0.0000,24.9100
31219953.0000,0.0323,-0.0231,9.8819,0.0010,0.0040,-0.0000,24.9100
31242953.0000,0.0223,-0.0431,9.7519,-0.0090,0.0040,-0.0000,24.9500
31265953.0000,0.0523,0.0269,9.8319,0.0010,-0.0060,-0.0000,24.9500
31288953.0000,-0.0277,-0.0031,9.8019,0.0010,0.0040,-0.0000,24.8600
31311953.0000,-0.0377,-0.0331,9.8819,0.0010,-0.0060,-0.0000,24.8600
31334953.0000,-0.0377,-0.0331,9.8219,0.0010,-0.0060,-0.0000,24.9100
31357953.0000,0.0523,-0.0031,9.8919,0.0010,-0.0060,-0.0000,24.9100
31380953.0000,-0.0477,0.0069,9.8119,0.0010,-0.0060,-0.0000,24.9100
31403953.0000,-0.0077,-0.0231,9.7419,0.0010,0.0040,-0.0000,24.9100
31426953.0000,0.0723,0.0369,9.7519,0.0010,-0.0060,-0.0000,24.8600
31449953.0000,-0.0177,0.0169,9.8519,0.0010,0.0040,-0.0000,24.8600
31472953.0000,0.0023,0.0169,9.7719,0.0010,-0.0060,-0.0000,24.8600
31495953.0000,-0.0277,-0.0231,9.7419,0.0010,-0.0060,-0.0000,24.9500
31518953.0000,-0.0177,-0.0131,9.8019,0.0010,-0.0060,-0.0000,24.9500
31541953.0000,0.0123,-0.0631,9.7919,0.0010,-0.0060,-0.0000,24.9500
31564953.0000,-0.0077,-0.0431,9.8119,0.0010,0.0040,-0.0000,24.9100
31587953.0000,-0.0377,-0.0331,9.8719,0.0010,-0.0060,-0.0000,24.9100
31610953.0000,-0.0677,-0.0531,9.7819,0.0010,0.0040,-0.0000,24.9500
31633953.0000,-0.0277,0.0169,9.7719,0.0010,0.0040,-0.0000,24.8600
31656953.0000,0.0323,-0.0131,9.7919,0.0010,-0.0060,-0.0000,24.9500
31679953.0000,0.0023,0.0469,9.7219,0.0010,-0.0060,-0.0000,24.9500
31702953.0000,0.0223,0.0269,9.7719,0.0010,0.0040,-0.0000,24.9100
31725953.0000,0.0323,0.0069,9.7619,0.0010,0.0040,-0.0000,24.8100
31748953.0000,-0.0277,0.0369,9.8419,0.0010,0.0040,-0.0000,24.9100
31771953.0000,-0.0277,0.0169,9.8219,0.0010,0.0040,-0.0000,24.9100
31794953.0000,0.0423,0.0069,9.8419,0.0010,-0.0060,-0.0000,24.9100
31817953.0000,0.0523,0.0469,9.8419,0.0010,0.0040,-0.0000,24.8600
31840953.0000,-0.0177,0.0269,9.7919,0.0010,0.0040,-0.0000,24.8600
31863953.0000,0.0023,0.0169,9.7619,-0.0090,0.0040,-0.0000,24.8600
31886953.0000,0.0823,-0.0031,9.9019,0.0010,-0.0060,-0.0000,24.9500
31909953.0000,-0.0177,-0.0231,9.7519,0.0010,0.0040,-0.0000,24.9100
31932953.0000,0.0223,0.0269,9.7819,0.0010,0.0040,-0.0000,24.9100
31955953.0000,-0.0377,-0.0031,9.8219,0.0010,-0.0060,-0.0000,24.8100
31978953.0000,-0.0177,0.0169,9.8319,0.0010,-0.0060,-0.0000,24.9100
32001953.0000,0.0023,-0.0031,9.8219,0.0010,-0.0060,-0.0000,25.0500
32024953.0000,0.0323,-0.0031,9.8119,0.0010,-0.0060,-0.0000,24.8600
32047953.0000,0.0023,0.0269,9.8419,-0.0090,0.0040,-0.0000,24.9500
32070953.0000,0.0423,-0.0331,9.7119,0.0010,0.0040,-0.0000,24.9500
32093953.0000,-0.0177,-0.0131,9.8219,0.0010,-0.0060,-0.0000,24.9100
32116953.0000,-0.0077,0.0069,9.9119,0.0010,-0.0060,-0.0000,24.8100
32139953.0000,0.0023,-0.0331,9.7119,0.0010,0.0040,-0.0000,24.9100
32162953.0000,0.0023,0.0169,9.8819,0.0010,0.0040,-0.0000,24.9100
32185953.0000,-0.0277,-0.0531,9.7719,0.0010,0.0040,-0.0000,24.8600
32208953.0000,0.0023,-0.0731,9.8519,0.0010,-0.0060,-0.0000,24.9500
32231953.0000,-0.0077,0.0269,9.8019,0.0010,0.0040,-0.0000,24.8600
32254953.0000,-0.0377,-0.0231,9.8519,-0.0090,-0.0060,-0.0000,24.8600
32277953.0000,0.0423,-0.0131,9.7819,0.0010,0.0040,-0.0000,24.8600
32300953.0000,0.0423,0.0169,9.8519,0.0010,-0.0060,-0.0000,24.8600
32323953.0000,0.0223,-0.0131,9.7819,0.0010,0.0040,-0.0000,24.9100
32346953.0000,-0.0177,-0.0331,9.6819,0.0010,0.0040,-0.0000,24.9100
32369953.0000,-0.0177,-0.0731,9.8219,0.0010,-0.0060,-0.0000,24.8600
32392953.0000,0.0023,-0.0531,9.8219,0.0010,0.0040,-0.0000,24.8600
32415953.0000,0.0223,0.0269,9.8319,0.0010,-0.0060,-0.0000,24.8600
32438953.0000,-0.0377,0.0569,9.9019,0.0010,0.0040,-0.0000,24.9500
32461953.0000,-0.0577,0.0169,9.8519,0.0010,0.0040,-0.0000,24.9100
32484953.0000,0.0023,-0.0031,9.9019,0.0010,-0.0060,-0.0000,24.9100
32507953.0000,-0.0377,-0.0131,9.8619,0.0010,-0.0060,-0.0000,24.9100
32530953.0000,0.0623,0.0469,9.7519,0.0010,0.0040,-0.0000,24.8100
32553953.0000,0.0123,-0.0431,9.7419,0.0010,-0.0060,-0.0000,24.9100
32576953.0000,-0.0377,-0.0031,9.8019,0.0010,-0.0060,-0.0000,24.8600
32599953.0000,-0.0077,0.0169,9.7719,0.0010,0.0040,-0.0000,24.9500
32622953.0000,0.0123,0.0069,9.7819,0.0010,0.0040,-0.0000,24.9500
32645953.0000,0.0423,-0.0231,9.8319,0.0010,0.0040,-0.0000,24.8600
32668953.0000,0.0723,-0.0131,9.8319,0.0010,-0.0060,-0.0000,24.9100
32691953.0000,-0.0377,-0.0331,9.7719,0.0010,0.0040,-0.0000,24.9100
32714953.0000,-0.0477,-0.0531,9.8119,0.0010,0.0040,-0.0000,24.9100
32737953.0000,-0.0677,-0.0031,9.7819,0.0010,-0.0060,-0.0000,24.9100
32760953.0000,-0.0277,-0.0231,9.7519,0.0010,-0.0060,-0.0000,24.9500
32783953.0000,0.0723,-0.0331,9.8319,0.0010,-0.0060,-0.0000,24.8600
32806953.0000,0.0223,0.0169,9.8019,0.0010,0.0040,-0.0000,24.8600
32829953.0000,-0.0277,0.0269,9.8119,0.0010,0.0040,-0.0000,24.8600
32852953.0000,0.0323,0.0269,9.7419,0.0010,-0.0060,-0.0000,24.9100
32875953.0000,0.0123,-0.0231,9.7719,0.0010,-0.0060,-0.0000,24.8100
32898953.0000,-0.0477,-0.0031,9.7519,0.0010,-0.0060,-0.0000,24.9100
32921953.0000,-0.0077,-0.0031,9.8619,0.0010,0.0040,-0.0000,24.9100
32944953.0000,-0.0477,0.0169,9.8819,0.0010,0.0040,-0.0000,24.8600
32967953.0000,-0.0077,0.0169,9.8319,0.0010,0.0040,-0.0000,24.8600
32990953.0000,-0.0477,-0.0131,9.8819,0.0010,0.0040,-0.0000,24.9500
33013953.0000,0.0323,0.0469,9.8519,0.0010,-0.0060,-0.0000,24.8600
33036953.0000,0.0123,-0.0231,9.8019,0.0010,-0.0060,-0.0000,24.8600
33059953.0000,0.0323,-0.0031,9.7819,0.0010,0.0040,-0.0000,24.8600
33082953.0000,0.0023,-0.0331,9.7919,0.0010,0.0040,-0.0000,24.7200
33105953.0000,0.0523,0.0269,9.8419,0.0010,0.0040,-0.0000,24.9100
33128953.0000,-0.0277,-0.0031,9.8819,0.0010,0.0040,-0.0000,24.9500
33151953.0000,0.0323,0.0069,9.8119,0.0010,0.0040,-0.0000,24.8600
33174953.0000,0.0323,0.0069,9.8019,0.0010,0.0040,-0.0000,24.9500
33197953.0000,-0.0077,0.0369,9.8019,0.0010,0.0040,-0.0000,24.8600
33220953.0000,-0.0077,0.0369,9.7519,-0.0090,-0.0060,-0.0000,24.9500
33243953.0000,0.0423,0.0169,9.7819,0.0010,0.0040,-0.0000,24.9100
33266953.0000,0.0223,-0.0231,9.7419,0.0010,0.0040,-0.0000,24.9100
33289953.0000,-0.0077,0.0169,9.8419,0.0010,0.0040,-0.0000,24.9100
33312953.0000,0.0123,0.0269,9.8119,0.0010,-0.0060,-0.0000,24.9100
33335953.0000,-0.0377,0.0169,9.7719,0.0010,-0.0060,-0.0000,24.8600
33358953.0000,0.0123,-0.0331,9.7819,0.0010,0.0040,-0.0000,24.9500
33381953.0000,-0.0077,-0.0031,9.8919,0.0010,-0.0060,-0.0000,24.9500
33404953.0000,-0.0077,-0.0331,9.8819,0.0010,0.0040,-0.0000,24.8600
33427953.0000,-0.0077,0.0169,9.7619,0.0010,0.0040,-0.0000,24.9100
33450953.0000,-0.0277,0.0269,9.8519,0.0010,0.0040,-0.0000,24.9100
33473953.0000,-0.0377,-0.0131,9.8819,0.0010,0.0040,-0.0000,25.0000
33496953.0000,0.0223,-0.0431,9.8619,0.0010,-0.0060,-0.0000,24.9100
33519953.0000,0.0323,-0.0231,9.7319,0.0010,-0.0060,-0.0000,24.9500
33542953.0000,0.0023,0.0069,9.8519,0.0010,0.0040,-0.0000,24.8600
33565953.0000,0.0223,-0.0031,9.8919,0.0010,-0.0060,-0.0000,24.9500
33588953.0000,-0.0577,-0.0131,9.8519,0.0010,-0.0060,-0.0000,24.8600
33611953.0000,0.0323,-0.0431,9.8219,-0.0090,0.0040,-0.0000,24.9100
33634953.0000,-0.0177,-0.0331,9.8219,0.0010,0.0040,-0.0000,24.9100
33657953.0000,-0.0177,0.0069,9.7719,0.0010,0.0040,-0.0000,24.9100
33680953.0000,-0.0077,0.0269,9.7719,0.0010,0.0040,-0.0000,24.8100
33703953.0000,0.0023,0.0169,9.8619,0.0010,0.0040,-0.0000,24.9500
33726953.0000,0.0123,0.0669,9.7619,0.0010,0.0040,-0.0000,24.8600
33749953.0000,0.0123,0.0469,9.7719,0.0010,0.0040,-0.0000,24.9500
33772953.0000,0.0323,-0.1131,9.7719,-0.0090,-0.0060,-0.0000,24.9500
33795953.0000,0.0123,0.0469,9.8219,0.0010,0.0040,-0.0000,24.8600
33818953.0000,0.0023,0.0369,9.8119,0.0010,0.0040,-0.0000,24.8600
33841953.0000,0.0923,-0.0331,9.8719,-0.0090,-0.0060,-0.0000,24.8100
33864953.0000,-0.0177,0.0069,9.7919,0.0010,0.0040,-0.0000,24.8100
33887953.0000,0.0223,0.0169,9.8719,0.0010,0.0040,-0.0000,24.9100
33910953.0000,-0.0277,-0.0231,9.8319,0.0010,-0.0060,-0.0000,24.9500
33933953.0000,0.0123,-0.0131,9.8119,0.0010,0.0040,-0.0000,24.8600
33956953.0000,-0.0577,0.0069,9.7919,0.0010,0.0040,-0.0000,24.8600
33979953.0000,-0.0277,0.0569,9.8619,0.0010,0.0040,-0.0000,24.8600
34002953.0000,-0.0277,0.0269,9.7619,0.0010,-0.0060,-0.0000,24.9100
34025953.0000,-0.0577,0.0769,9.8119,0.0010,-0.0060,-0.0000,24.8100
34048953.0000,-0.0177,-0.0431,9.8119,0.0010,0.0040,-0.0000,24.9100
34071953.0000,0.0223,0.0169,9.8519,0.0010,-0.0060,-0.0000,24.9100
34094953.0000,0.0323,-0.0031,9.8019,0.0010,0.0040,-0.0000,24.8600
34117953.0000,-0.0177,0.0169,9.7819,0.0010,0.0040,-0.0000,24.8600
34140953.0000,0.0123,-0.0231,9.7719,0.0010,0.0040,-0.0000,24.8600
34163953.0000,0.0023,0.0369,9.8419,0.0010,0.0040,-0.0000,24.8600
34186953.0000,-0.0777,-0.0831,9.7719,0.0010,0.0040,-0.0000,24.9100
34209953.0000,0.0123,0.0469,9.8619,0.0010,0.0040,-0.0000,24.9100
34232953.0000,0.0423,-0.0631,9.8119,0.0010,-0.0060,-0.0000,25.0000
34255953.0000,0.0623,-0.0031,9.9419,-0.0090,0.0040,-0.0000,24.8100
34278953.0000,-0.0377,-0.0531,9.7819,0.0010,-0.0060,-0.0000,24.9500
34301953.0000,-0.0177,-0.0031,9.8519,0.0010,-0.0060,-0.0000,24.9500
34324953.0000,0.0023,0.0169,9.7819,0.0010,-0.0060,-0.0000,24.8600
34347953.0000,0.0323,0.0369,9.8119,0.0010,0.0040,-0.0000,24.9500
34370953.0000,0.0223,0.0069,9.7119,0.0010,0.0040,-0.0000,24.8100
34393953.0000,0.0123,0.0269,9.8219,0.0010,-0.0060,-0.0000,24.9100
34416953.0000,-0.0177,-0.0331,9.7619,0.0010,0.0040,-0.0000,24.9100
34439953.0000,0.0323,0.0469,9.7819,0.0010,0.0040,-0.0000,24.9100
34462953.0000,-0.0177,0.0169,9.8019,0.0010,0.0040,-0.0000,24.9500
34485953.0000,0.0323,-0.0131,9.7919,0.0010,0.0040,-0.0000,24.8600
34508953.0000,0.0523,0.0069,9.7919,0.0010,0.0040,-0.0000,24.8600
34531953.0000,-0.0077,0.0369,9.8019,0.0010,0.0040,-0.0000,24.9500
34554953.0000,0.0123,0.0169,9.8419,0.0010,0.0040,-0.0000,24.8600
34577953.0000,0.0223,0.0269,9.8019,0.0010,0.0040,-0.0000,24.9500
34600953.0000,-0.0277,-0.0631,9.7419,0.0010,-0.0060,-0.0000,24.9100
34623953.0000,0.0123,-0.0331,9.8019,0.0010,0.0040,-0.0000,24.9100
34646953.0000,0.0023,0.0069,9.8319,0.0010,-0.0060,-0.0000,24.9100
34669953.0000,0.0123,-0.0331,9.7619,-0.0090,0.0040,-0.0000,24.9500
34692953.0000,0.0023,-0.0431,9.8519,0.0010,0.0040,-0.0000,24.8600
34715953.0000,0.0023,-0.0131,9.8219,0.0010,-0.0060,-0.0000,24.8600
34738953.0000,0.0423,0.0369,9.8219,0.0010,0.0040,-0.0000,24.8600
34761953.0000,0.0223,-0.0231,9.8219,0.0010,0.0040,-0.0000,24.9100
34784953.0000,0.0023,-0.0031,9.7819,-0.0090,-0.0060,-0.0000,25.0000
34807953.0000,0.0123,0.0569,9.8819,0.0010,-0.0060,-0.0000,24.8100
34830953.0000,0.0123,0.0269,9.7719,0.0010,-0.0060,-0.0000,24.9100
34853953.0000,-0.0077,0.0369,9.8119,0.0010,0.0040,-0.0000,24.9500
34876953.0000,0.0123,0.0169,9.8319,0.0010,0.0040,-0.0000,24.9500
34899953.0000,0.0323,-0.0031,9.7819,0.0010,0.0040,-0.0000,24.9500
34922953.0000,0.0223,0.0069,9.7919,-0.0090,0.0040,-0.0000,24.9500
34945953.0000,0.0623,0.0369,9.8019,0.0010,-0.0060,-0.0000,24.8100
34968953.0000,-0.0677,-0.0131,9.8319,-0.0090,0.0040,-0.0000,24.9100
34991953.0000,-0.0577,-0.0331,9.8819,0.0010,-0.0060,-0.0000,24.8100
35014953.0000,0.0323,-0.0131,9.8319,0.0010,-0.0060,-0.0000,24.9100
35037953.0000,-0.0477,0.0169,9.7819,0.0010,0.0040,-0.0000,24.8600
35060953.0000,-0.0277,0.0269,9.8619,0.0010,0.0040,-0.0000,24.8600
35083953.0000,-0.0277,-0.0331,9.8319,0.0010,-0.0060,-0.0000,24.8600
35106953.0000,-0.0077,-0.0331,9.8419,0.0010,-0.0060,-0.0000,24.8600
35129953.0000,0.0423,-0.0531,9.8119,0.0010,0.0040,-0.0000,24.9100
35152953.0000,-0.0477,-0.0331,9.8019,0.0010,-0.0060,-0.0000,24.9100
35175953.0000,0.0023,-0.0431,9.8819,0.0010,0.0040,-0.0000,25.0000
35198953.0000,-0.0077,-0.0331,9.7519,0.0010,-0.0060,-0.0000,24.9100
35221953.0000,-0.0477,-0.0731,9.8319,0.0010,-0.0060,-0.0000,24.8100
35244953.0000,-0.0577,-0.0531,9.8219,0.0010,-0.0060,-0.0000,24.8600
35267953.0000,0.0223,-0.0231,9.7919,0.0010,0.0040,-0.0000,24.8600
35290953.0000,-0.0077,0.0369,9.7319,0.0010,0.0040,-0.0000,24.9500
35313953.0000,-0.0077,-0.0131,9.7419,0.0010,0.0040,-0.0000,24.8600
35336953.0000,0.0323,0.0269,9.7619,-0.0090,0.0040,-0.0000,24.8600
35359953.0000,0.0223,0.0569,9.8219,0.0010,0.0040,-0.0000,24.8100
35382953.0000,0.0323,0.0269,9.7819,0.0010,-0.0060,-0.0000,24.9100
35405953.0000,-0.0577,-0.0031,9.8419,0.0010,-0.0060,-0.0000,24.9100
35428953.0000,0.0523,-0.0131,9.8319,0.0010,0.0040,-0.0000,24.8600
35451953.0000,-0.0177,-0.0231,9.8119,0.0010,0.0040,-0.0000,24.8600
35474953.0000,0.0423,0.0269,9.7419,-0.0090,-0.0060,-0.0000,24.9500
35497953.0000,-0.0077,-0.0331,9.7519,0.0010,-0.0060,-0.0000,24.8600
35520953.0000,-0.0577,-0.0031,9.8319,0.0010,0.0040,-0.0000,24.9100
35543953.0000,-0.0477,0.0269,9.8419,-0.0090,0.0040,-0.0000,24.9100
35566953.0000,0.0323,-0.0031,9.8319,0.0010,0.0040,-0.0000,24.9100
35589953.0000,-0.0277,-0.0331,9.7619,0.0010,0.0040,-0.0000,24.9100
35612953.0000,-0.0577,0.0169,9.8819,0.0010,-0.0060,-0.0000,24.9500
35635953.0000,0.0023,-0.0131,9.8119,0.0010,0.0040,-0.0000,24.8600
35658953.0000,0.0023,0.0269,9.7319,0.0010,0.0040,-0.0000,24.9500
35681953.0000,0.0123,-0.0531,9.8319,0.0010,0.0040,-0.0000,25.0500
35704953.0000,-0.0177,-0.0231,9.7619,0.0010,-0.0060,-0.0000,24.9100
35727953.0000,0.0723,-0.0531,9.8519,0.0010,-0.0060,-0.0000,25.0000
35750953.0000,0.0323,-0.0431,9.8219,0.0010,0.0040,-0.0000,24.9100
35773953.0000,-0.0177,0.0069,9.8619,0.0010,-0.0060,-0.0000,24.9100
35796953.0000,0.0323,-0.0331,9.8019,0.0010,0.0040,-0.0000,24.9500
35819953.0000,0.0023,0.0469,9.7819,0.0010,0.0040,-0.0000,24.8600
35842953.0000,0.0223,-0.0431,9.8519,0.0010,-0.0060,-0.0000,24.8600
35865953.0000,0.0823,-0.0131,9.7319,0.0010,0.0040,-0.0000,24.9500
35888953.0000,0.0323,-0.0031,9.7719,0.0010,0.0040,-0.0000,24.8600
35911953.0000,0.0023,-0.0231,9.8219,0.0010,0.0040,-0.0000,24.9100
35934953.0000,0.0123,-0.0331,9.7919,0.0010,-0.0060,-0.0000,24.9100
35957953.0000,-0.0077,0.0269,9.8119,0.0010,-0.0060,-0.0000,24.8100
35980953.0000,-0.0177,-0.0031,9.7319,-0.0090,0.0040,-0.0000,24.9100
36003953.0000,-0.0177,0.0469,9.8919,0.0010,0.0040,-0.0000,24.9500
36026953.0000,0.0423,-0.0231,9.7619,0.0010,0.0040,-0.0000,24.8600
36049953.0000,0.0123,-0.0031,9.7319,0.0010,0.0040,-0.0000,24.8600
36072953.0000,-0.0177,-0.0131,9.7619,0.0010,-0.0060,-0.0000,24.9500
36095953.0000,0.0723,-0.0331,9.8819,0.0010,0.0040,-0.0000,24.8600
36118953.0000,-0.0277,-0.0131,9.7319,0.0010,0.0040,-0.0000,24.9100
36141953.0000,-0.0177,0.0369,9.8219,0.0010,0.0040,-0.0000,24.9100
36164953.0000,-0.0277,-0.0031,9.8619,0.0010,0.0040,-0.0000,25.0000
36187953.0000,-0.0277,0.0069,9.8219,0.0010,-0.0060,-0.0000,24.8600
36210953.0000,-0.0177,0.0569,9.8219,0.0010,0.0040,-0.0000,24.7700
36233953.0000,-0.0277,0.0069,9.8319,0.0010,-0.0060,-0.0000,24.9500
36256953.0000,0.0423,-0.0131,9.8419,0.0010,-0.0060,-0.0000,24.8600
36279953.0000,-0.0077,0.0269,9.8119,0.0010,-0.0060,-0.0000,24.9100
36302953.0000,0.0023,-0.0331,9.8319,0.0010,-0.0060,-0.0000,24.9100
36325953.0000,0.0023,-0.0431,9.8819,0.0010,0.0040,-0.0000,24.9100
36348953.0000,0.0223,-0.0331,9.7419,0.0010,-0.0060,-0.0000,24.9100
36371953.0000,-0.0077,0.0469,9.8219,0.0010,0.0040,-0.0000,24.8600
36394953.0000,-0.0077,-0.0331,9.8219,0.0010,0.0040,-0.0000,24.8600
36417953.0000,0.0323,0.0369,9.8719,-0.0090,0.0040,-0.0000,24.8600
36440953.0000,-0.0077,-0.0631,9.7919,0.0010,0.0040,-0.0000,24.9500
36463953.0000,-0.0277,-0.0331,9.8519,0.0010,0.0040,-0.0000,24.8100
36486953.0000,0.0323,0.0069,9.8419,0.0010,-0.0060,-0.0000,24.9100
36509953.0000,0.0023,0.0169,9.9019,0.0010,0.0040,-0.0000,24.9100
36532953.0000,-0.0077,0.0269,9.8319,0.0010,0.0040,-0.0000,24.9100
36555953.0000,-0.0177,-0.0031,9.8519,0.0010,0.0040,-0.0000,24.8600
36578953.0000,0.0023,-0.0131,9.7819,0.0010,-0.0060,-0.0000,24.8600
36601953.0000,0.0723,-0.0331,9.7819,0.0010,-0.0060,-0.0000,24.8600
36624953.0000,-0.0277,-0.0431,9.7719,0.0010,-0.0060,-0.0000,24.9500
36647953.0000,0.0123,-0.0731,9.8819,0.0010,0.0040,-0.0000,24.9500
36670953.0000,0.0223,0.0269,9.7419,0.0010,0.0040,-0.0000,24.9100
36693953.0000,0.0523,0.0169,9.7419,0.0010,0.0040,-0.0000,25.0000
36716953.0000,0.0023,0.0769,9.7919,0.0010,0.0040,-0.0000,24.9100
36739953.0000,0.0123,-0.0231,9.8219,0.0010,-0.0060,-0.0000,24.9100
36762953.0000,-0.0877,0.0069,9.7919,0.0010,0.0040,-0.0000,24.8600
36785953.0000,-0.0077,0.0069,9.7219,0.0010,-0.0060,-0.0000,24.9500
36808953.0000,-0.0077,-0.0231,9.7419,0.0010,0.0040,-0.0000,24.8600
36831953.0000,-0.0077,-0.0331,9.8419,0.0010,0.0040,-0.0000,24.9500
36854953.0000,0.0023,0.0469,9.8519,0.0010,0.0040,-0.0000,24.9500
36877953.0000,-0.0177,0.0069,9.8519,0.0010,0.0040,-0.0000,24.9100
36900953.0000,-0.0177,0.0569,9.8519,0.0010,0.0040,-0.0000,24.8100
36923953.0000,0.0323,0.0369,9.8219,0.0010,-0.0060,-0.0000,25.0000
36946953.0000,0.0323,0.0069,9.7719,0.0010,0.0040,-0.0000,24.9500
36969953.0000,-0.0077,0.0469,9.7919,0.0010,-0.0060,-0.0000,24.9500
36992953.0000,-0.0477,0.0269,9.7319,0.0010,0.0040,-0.0000,24.8600
37015953.0000,-0.0077,0.0569,9.8219,0.0010,-0.0060,-0.0000,24.8600
37038953.0000,0.0423,-0.0031,9.7319,0.0010,0.0040,-0.0000,24.8100
37061953.0000,-0.0277,0.0069,9.8419,0.0010,-0.0060,-0.0000,24.9100
37084953.0000,0.0023,0.0369,9.8019,0.0010,0.0040,-0.0000,25.0000
37107953.0000,-0.0477,-0.0031,9.7719,0.0010,-0.0060,-0.0000,24.9100
37130953.0000,-0.0577,-0.0331,9.8019,0.0010,0.0040,-0.0000,24.8600
37153953.0000,0.0223,0.0369,9.8319,0.0010,0.0040,-0.0000,24.9500
37176953.0000,-0.0277,-0.0231,9.7419,-0.0090,0.0040,-0.0000,24.8600
37199953.0000,0.0423,0.0269,9.8219,0.0010,0.0040,-0.0000,24.8600
37222953.0000,-0.0077,-0.0031,9.8219,0.0010,-0.0060,-0.0000,24.8100
37245953.0000,0.0223,-0.0031,9.8319,0.0010,0.0040,-0.0000,24.9100
37268953.0000,0.0423,0.0069,9.7719,0.0010,-0.0060,-0.0000,24.9100
37291953.0000,-0.0177,-0.0631,9.7719,0.0010,-0.0060,-0.0000,24.9100
37314953.0000,0.0123,0.0769,9.7519,0.0010,-0.0060,-0.0000,25.0000
37337953.0000,0.0123,-0.0231,9.8419,0.0010,0.0040,-0.0000,24.9500
37360953.0000,-0.0177,-0.0631,9.7019,0.0010,-0.0060,-0.0000,24.9500
37383953.0000,0.0123,0.0469,9.8219,0.0010,-0.0060,-0.0000,24.8600
37406953.0000,-0.0177,0.0169,9.8119,0.0010,0.0040,-0.0000,24.9500
37429953.0000,-0.0077,0.0069,9.7719,0.0010,-0.0060,-0.0000,24.9100
37452953.0000,0.0323,0.0169,9.7519,0.0010,-0.0060,-0.0000,24.9100
37475953.0000,-0.0477,-0.0331,9.8519,0.0010,-0.0060,-0.0000,24.9100
37498953.0000,0.0123,0.0169,9.7919,0.0010,0.0040,-0.0000,24.8100
37521953.0000,0.0223,0.0369,9.7919,0.0010,0.0040,-0.0000,24.8600
37544953.0000,0.0023,-0.0231,9.8019,0.0010,0.0040,-0.0000,24.8600
37567953.0000,-0.0077,-0.0331,9.8219,0.0010,0.0040,-0.0000,24.8600
37590953.0000,-0.0277,0.0169,9.8619,0.0010,0.0040,-0.0000,24.9500
37613953.0000,0.0323,-0.0131,9.8019,0.0010,-0.0060,-0.0000,24.9500
37636953.0000,0.0323,0.0469,9.8219,0.0010,-0.0060,-0.0000,24.8600
37659953.0000,-0.0177,-0.0031,9.8219,0.0010,-0.0060,-0.0000,24.9100
37682953.0000,-0.0777,-0.0231,9.7419,0.0010,0.0040,-0.0000,24.9100
37705953.0000,0.0523,0.0069,9.8519,0.0010,-0.0060,-0.0000,24.9500
37728953.0000,0.0123,0.0169,9.7119,0.0010,0.0040,-0.0000,24.9500
37751953.0000,0.0123,-0.0031,9.8719,0.0010,0.0040,-0.0000,25.0500
37774953.0000,0.0323,0.0469,9.8819,0.0010,0.0040,-0.0000,24.8600
37797953.0000,-0.0277,0.0369,9.7919,0.0010,0.0040,-0.0000,24.8100
37820953.0000,-0.0277,0.0369,9.8319,0.0010,-0.0060,-0.0000,24.9100
37843953.0000,0.0323,-0.0331,9.7819,0.0010,0.0040,-0.0000,24.9100
37866953.0000,0.0023,0.0069,9.7919,0.0010,0.0040,-0.0000,24.9100
37889953.0000,-0.0177,0.0169,9.7619,-0.0090,0.0040,-0.0000,24.8600
37912953.0000,-0.0077,0.0069,9.8119,0.0010,-0.0060,-0.0000,24.8600
37935953.0000,-0.0377,-0.0231,9.8419,0.0010,-0.0060,-0.0000,24.8600
37958953.0000,-0.0377,0.0069,9.8019,0.0010,-0.0060,-0.0000,24.8600
37981953.0000,0.0023,-0.0231,9.7419,0.0010,0.0040,-0.0000,24.9500
38004953.0000,0.0223,0.0069,9.8719,0.0010,-0.0060,-0.0000,24.9100
38027953.0000,0.0523,0.0369,9.8019,0.0010,-0.0060,-0.0000,25.0000
38050953.0000,-0.0577,0.0069,9.7919,0.0010,0.0040,-0.0000,24.9100
38073953.0000,0.0223,0.0269,9.8219,0.0010,0.0040,-0.0000,24.9100
38096953.0000,0.0123,0.0469,9.7819,0.0010,0.0040,-0.0000,24.8600
38119953.0000,-0.0177,-0.0231,9.8619,0.0010,-0.0060,-0.0000,24.8600
38142953.0000,0.0323,-0.0131,9.7719,0.0010,0.0040,-0.0000,24.8600
38165953.0000,0.0423,-0.0031,9.8319,-0.0090,0.0040,-0.0000,24.9500
38188953.0000,-0.0677,-0.0031,9.8819,0.0010,-0.0060,-0.0000,25.0000
38211953.0000,-0.0177,0.0569,9.8019,0.0010,0.0040,-0.0000,24.9100
38234953.0000,-0.0377,0.0169,9.7119,0.0010,-0.0060,-0.0000,24.9100
38257953.0000,0.0323,0.0069,9.7819,0.0010,0.0040,-0.0000,24.9100
38280953.0000,-0.0077,-0.0231,9.7519,0.0010,-0.0060,-0.0000,24.9500
38303953.0000,-0.0277,-0.0131,9.8319,0.0010,0.0040,-0.0000,24.9500
38326953.0000,-0.0477,-0.0431,9.9319,0.0010,0.0040,-0.0000,24.9500
38349953.0000,-0.0377,-0.0331,9.8319,0.0010,0.0040,-0.0000,24.9500
38372953.0000,0.0623,-0.0331,9.9019,0.0010,-0.0060,-0.0000,24.9500
38395953.0000,-0.0177,-0.0231,9.8419,0.0010,-0.0060,-0.0000,24.9500
38418953.0000,-0.0277,0.0569,9.7419,0.0010,0.0040,-0.0000,25.0000
38441953.0000,-0.0077,-0.0331,9.7619,0.0010,-0.0060,-0.0000,25.0000
38464953.0000,-0.0377,0.0069,9.7619,0.0010,-0.0060,-0.0000,24.8600
38487953.0000,-0.0477,0.0069,9.8319,0.0010,0.0040,-0.0000,24.9500
38510953.0000,-0.0277,-0.0031,9.8119,0.0010,-0.0060,-0.0000,24.9500
38533953.0000,-0.0177,0.0169,9.8419,0.0010,0.0040,-0.0000,24.8600
38556953.0000,0.0123,0.0169,9.8619,0.0010,0.0040,-0.0000,24.8100
38579953.0000,-0.0277,0.0069,9.8319,0.0010,-0.0060,-0.0000,25.0000
38602953.0000,-0.0477,0.0269,9.8419,0.0010,-0.0060,-0.0000,24.9100
38625953.0000,0.0423,-0.0431,9.8919,0.0010,0.0040,-0.0000,24.9100
38648953.0000,0.0123,0.0369,9.7019,0.0010,0.0040,-0.0000,24.9100
38671953.0000,0.0223,-0.0131,9.8619,0.0010,0.0040,-0.0000,24.8600
38694953.0000,-0.0277,0.0169,9.8919,-0.0090,0.0040,-0.0000,24.8600
38717953.0000,0.0123,0.0069,9.8119,0.0010,-0.0060,-0.0000,24.9500
38740953.0000,-0.0177,0.0669,9.8719,0.0010,0.0040,-0.0000,24.8600
38763953.0000,-0.0577,-0.0331,9.7819,0.0010,0.0040,-0.0000,24.8100
38786953.0000,0.0023,-0.0031,9.8219,0.0010,0.0040,-0.0000,24.9100
38809953.0000,0.0623,0.0069,9.8119,0.0010,-0.0060,-0.0000,24.8100
38832953.0000,0.0223,-0.0231,9.7419,0.0010,-0.0060,-0.0000,24.9100
38855953.0000,0.0323,0.0169,9.8319,0.0010,-0.0060,-0.0000,24.9500
38878953.0000,0.0023,-0.0031,9.6819,0.0010,0.0040,-0.0000,24.9500
38901953.0000,-0.0177,-0.0131,9.8619,0.0010,0.0040,-0.0000,24.8600
38924953.0000,-0.0477,0.0369,9.7919,0.0010,-0.0060,-0.0000,24.9500
38947953.0000,-0.0377,-0.1131,9.7319,0.0010,0.0040,-0.0000,24.9100
38970953.0000,-0.0077,-0.0731,9.8819,0.0010,0.0040,-0.0000,24.9100
38993953.0000,-0.0077,-0.0531,9.7819,0.0010,-0.0060,-0.0000,24.9100
39016953.0000,0.0023,-0.0031,9.8519,0.0010,-0.0060,-0.0000,24.9100
39039953.0000,0.0223,0.0169,9.7719,0.0010,0.0040,-0.0000,24.9500
39062953.0000,-0.0077,0.0169,9.7019,0.0010,0.0040,-0.0000,24.8600
39085953.0000,-0.0477,0.0169,9.7819,0.0010,0.0040,-0.0000,24.9500
39108953.0000,-0.0077,-0.0031,9.7119,-0.0090,0.0040,-0.0000,24.8600
39131953.0000,0.0223,-0.0331,9.8219,0.0010,0.0040,-0.0000,24.9500
39154953.0000,0.0123,-0.0231,9.7819,0.0010,0.0040,-0.0000,24.8600
39177953.0000,0.0023,0.0069,9.7419,0.0010,-0.0060,-0.0000,24.9100
39200953.0000,-0.0277,0.0169,9.7819,0.0010,0.0040,-0.0000,24.9100
39223953.0000,-0.0277,-0.0331,9.8119,0.0010,0.0040,-0.0000,24.8600
39246953.0000,-0.0277,0.0069,9.8319,-0.0090,0.0040,-0.0000,24.9500
39269953.0000,-0.0377,0.0069,9.7619,0.0010,-0.0060,-0.0000,24.9500
39292953.0000,0.0323,-0.0531,9.7619,0.0010,0.0040,-0.0000,24.9500
39315953.0000,0.0223,0.0069,9.8119,0.0010,0.0040,-0.0000,24.9500
39338953.0000,0.0223,0.0069,9.8619,0.0010,0.0040,-0.0000,24.9100
39361953.0000,0.0523,-0.0331,9.7819,-0.0090,-0.0060,-0.0000,24.9100
39384953.0000,-0.0277,0.0269,9.7719,0.0010,-0.0060,-0.0000,24.9100
39407953.0000,0.0123,0.0269,9.8119,0.0010,0.0040,-0.0000,25.0000
39430953.0000,0.0423,0.0269,9.9019,0.0010,-0.0060,-0.0000,24.8600
39453953.0000,0.0323,0.0069,9.8019,0.0010,0.0040,-0.0000,24.8600
39476953.0000,0.0123,-0.0231,9.8219,0.0010,0.0040,-0.0000,24.8600
39499953.0000,-0.0177,0.0069,9.7719,0.0010,0.0040,-0.0000,24.9500
39522953.0000,0.0123,-0.0131,9.7819,0.0010,-0.0060,-0.0000,24.9100
39545953.0000,-0.0777,0.0169,9.7119,0.0010,0.0040,-0.0000,24.9100
39568953.0000,-0.0177,-0.0831,9.7919,0.0010,-0.0060,-0.0000,24.8100
39591953.0000,0.0223,-0.0331,9.8519,0.0010,-0.0060,-0.0000,24.9100
39614953.0000,0.0023,-0.0131,9.7619,0.0010,-0.0060,-0.0000,24.8600
39637953.0000,-0.0277,0.0069,9.7719,-0.0090,0.0040,-0.0000,24.9500
39660953.0000,0.0323,-0.0131,9.7819,0.0010,0.0040,-0.0000,24.8600
39683953.0000,0.0123,-0.0531,9.8619,0.0010,0.0040,-0.0000,24.9500
39706953.0000,-0.0277,0.0369,9.8119,0.0010,0.0040,-0.0000,24.9100
39729953.0000,0.0023,-0.0031,9.8219,-0.0090,0.0040,-0.0000,25.0000
39752953.0000,-0.0477,-0.0631,9.8019,0.0010,0.0040,-0.0000,24.9100
39775953.0000,0.0023,-0.0131,9.8019,0.0010,-0.0060,-0.0000,24.8100
39798953.0000,0.0623,0.0069,9.8219,0.0010,-0.0060,-0.0000,24.8600
39821953.0000,0.0423,-0.0131,9.7719,0.0010,-0.0060,-0.0000,24.9500
39844953.0000,-0.0177,0.0069,9.7719,0.0010,-0.0060,-0.0000,24.9500
39867953.0000,0.0223,-0.0031,9.7719,0.0010,0.0040,-0.0000,24.8600
39890953.0000,0.0023,-0.0431,9.7719,0.0010,-0.0060,-0.0000,24.9500
39913953.0000,-0.0377,-0.0431,9.8319,0.0010,0.0040,-0.0000,24.8600
39936953.0000,0.0823,0.0069,9.7819,0.0010,-0.0060,-0.0000,24.9100
39959953.0000,0.0023,0.0369,9.8219,0.0010,-0.0060,-0.0000,24.8100
39982953.0000,-0.0277,0.0169,9.7119,0.0010,0.0040,-0.0000,24.8100
40005953.0000,0.0323,-0.0131,9.7819,0.0010,0.0040,-0.0000,24.8600
40028953.0000,0.0923,0.0169,9.8319,0.0010,0.0040,-0.0000,24.8600
40051953.0000,0.0023,0.0169,9.8719,-0.0090,0.0040,-0.0000,24.9500
40074953.0000,0.0423,-0.0431,9.8019,0.0010,0.0040,-0.0000,24.9500
40097953.0000,-0.0577,0.0369,9.8319,0.0010,0.0040,-0.0000,24.9100
40120953.0000,0.0423,-0.0031,9.7119,0.0010,0.0040,-0.0000,24.9100
40143953.0000,-0.0377,0.0069,9.8319,0.0010,-0.0060,-0.0000,24.9100
40166953.0000,0.0123,-0.0031,9.8319,0.0010,-0.0060,-0.0000,24.9100
40189953.0000,0.0223,-0.0131,9.8819,0.0010,-0.0060,-0.0000,24.8600
40212953.0000,0.0423,0.0269,9.7819,0.0010,-0.0060,-0.0000,24.8600
40235953.0000,0.0123,0.0269,9.8019,0.0010,-0.0060,-0.0000,24.9500
40258953.0000,0.0323,-0.0131,9.7819,0.0010,0.0040,-0.0000,24.9500
40281953.0000,-0.0077,0.0569,9.8119,0.0010,-0.0060,-0.0000,24.9100
40304953.0000,0.0023,-0.0231,9.8919,0.0010,0.0040,-0.0000,25.0000
40327953.0000,-0.0477,0.0269,9.7919,0.0010,-0.0060,-0.0000,24.9100
40350953.0000,-0.0077,0.0169,9.7719,0.0010,0.0040,-0.0000,24.8100
40373953.0000,0.0323,-0.0531,9.8419,0.0010,0.0040,-0.0000,24.9500
40396953.0000,-0.0077,-0.0131,9.7119,0.0010,0.0040,-0.0000,24.9500
40419953.0000,-0.0377,-0.0231,9.8119,0.0010,0.0040,-0.0000,24.8600
40442953.0000,-0.0277,-0.0231,9.8319,0.0010,0.0040,-0.0000,24.9500
40465953.0000,0.0023,0.0069,9.7719,0.0010,0.0040,-0.0000,24.9100
40488953.0000,-0.0677,0.0169,9.7519,0.0010,-0.0060,-0.0000,24.9100
40511953.0000,-0.0577,-0.0431,9.8219,0.0010,0.0040,-0.0000,24.9100
40534953.0000,0.0123,-0.0231,9.7819,-0.0090,-0.0060,-0.0000,24.9100
40557953.0000,-0.0177,-0.0231,9.7919,0.0010,0.0040,-0.0000,24.8600
40580953.0000,0.0023,-0.0231,9.8219,0.0010,-0.0060,-0.0000,24.9500
40603953.0000,-0.0077,-0.0531,9.8419,0.0010,0.0040,-0.0000,24.7700
40626953.0000,-0.0077,-0.0031,9.8419,0.0010,-0.0060,-0.0000,24.9500
40649953.0000,-0.0077,-0.0031,9.8019,0.0010,0.0040,-0.0000,24.9500
40672953.0000,-0.0577,0.0169,9.6719,0.0010,-0.0060,-0.0000,24.8600
40695953.0000,-0.0277,-0.0231,9.8019,0.0010,0.0040,-0.0000,24.9100
40718953.0000,0.0023,0.0169,9.8619,0.0010,-0.0060,-0.0000,24.8100
40741953.0000,0.0123,0.0069,9.8819,-0.0090,0.0040,-0.0000,24.8100
40764953.0000,-0.0177,-0.0531,9.8819,0.0010,-0.0060,-0.0000,24.8600
40787953.0000,-0.0277,0.0369,9.8519,0.0010,0.0040,-0.0000,24.9500
40810953.0000,0.0123,-0.0231,9.7919,0.0010,0.0040,-0.0000,24.9500
40833953.0000,-0.0177,0.0569,9.7519,-0.0090,0.0040,-0.0000,24.9500
40856953.0000,0.0723,0.0469,9.7519,0.0010,0.0040,-0.0000,24.9100
40879953.0000,0.0023,0.0569,9.8519,0.0010,0.0040,-0.0000,24.9100
40902953.0000,0.0123,-0.0631,9.7719,0.0010,-0.0060,-0.0000,24.9100
40925953.0000,-0.0477,0.0069,9.8519,-0.0090,0.0040,-0.0000,24.9100
40948953.0000,-0.0377,-0.0431,9.8419,0.0010,0.0040,-0.0000,24.8600
40971953.0000,-0.0377,-0.0131,9.8119,0.0010,-0.0060,-0.0000,24.9500
40994953.0000,0.0023,-0.0631,9.8219,0.0010,0.0040,-0.0000,24.9500
41017953.0000,0.0223,-0.0231,9.7919,0.0010,0.0040,-0.0000,24.9500
41040953.0000,-0.0277,0.0269,9.7719,0.0010,0.0040,-0.0000,24.9100
41063953.0000,-0.0077,-0.0231,9.7219,0.0010,0.0040,-0.0000,24.8100
41086953.0000,-0.0077,0.0069,9.7619,0.0010,0.0040,-0.0000,24.9100
41109953.0000,-0.0077,-0.0331,9.8519,0.0010,-0.0060,-0.0000,25.0000
41132953.0000,0.0323,-0.0031,9.7719,0.0010,0.0040,-0.0000,24.8600
41155953.0000,-0.0277,0.0169,9.8519,0.0010,0.0040,-0.0000,24.8600
41178953.0000,0.0223,-0.0231,9.8219,0.0010,0.0040,-0.0000,24.9500
41201953.0000,0.0423,-0.0331,9.7619,0.0010,-0.0060,-0.0000,24.8600
41224953.0000,-0.0177,0.0169,9.8019,0.0010,-0.0060,-0.0000,24.9100
41247953.0000,0.0023,-0.0131,9.7519,0.0010,0.0040,-0.0000,24.9100
41270953.0000,0.0323,0.0369,9.8519,0.0010,-0.0060,-0.0000,24.9100
41293953.0000,-0.0077,-0.0031,9.8419,0.0010,-0.0060,-0.0000,24.8100
41316953.0000,0.0223,0.0069,9.9019,0.0010,-0.0060,-0.0000,24.9500
41339953.0000,-0.0177,-0.0431,9.8219,0.0010,0.0040,-0.0000,24.8600
41362953.0000,-0.0277,-0.0431,9.8119,0.0010,0.0040,-0.0000,24.9500
41385953.0000,0.0023,0.0369,9.8119,0.0010,0.0040,-0.0000,24.9500
41408953.0000,0.0523,-0.0231,9.7519,0.0010,-0.0060,-0.0000,24.8600
41431953.0000,0.0223,0.0069,9.8419,-0.0090,-0.0060,-0.0000,24.9500
41454953.0000,0.0123,0.0269,9.8319,-0.0090,-0.0060,-0.0000,24.9100
41477953.0000,0.0223,-0.0331,9.8019,0.0010,-0.0060,-0.0000,24.9100
41500953.0000,-0.0777,0.0069,9.8319,-0.0090,0.0040,-0.0000,24.8100
41523953.0000,-0.0377,-0.0231,9.9119,0.0010,-0.0060,-0.0000,24.9500
41546953.0000,-0.0177,-0.0131,9.8019,-0.0090,-0.0060,-0.0000,24.9500
41569953.0000,-0.0677,-0.0031,9.7619,0.0010,-0.0060,-0.0000,24.8600
41592953.0000,0.0523,0.0069,9.7619,0.0010,0.0040,-0.0000,24.9500
41615953.0000,0.0123,-0.0031,9.7819,0.0010,-0.0060,-0.0000,24.9100
41638953.0000,0.0423,0.0069,9.8319,0.0010,-0.0060,-0.0000,24.9100
41661953.0000,0.0523,0.0469,9.8619,0.0010,-0.0060,-0.0000,24.9100
41684953.0000,-0.0277,0.0169,9.7919,0.0010,-0.0060,-0.0000,24.9100
41707953.0000,-0.0377,0.0369,9.7219,0.0010,0.0040,-0.0000,24.9500
41730953.0000,-0.0177,-0.0731,9.7919,-0.0090,-0.0060,-0.0000,24.8600
41753953.0000,0.0223,-0.0431,9.8519,0.0010,0.0040,-0.0000,24.9500
41776953.0000,0.0223,-0.0831,9.8119,0.0010,0.0040,-0.0000,24.9500
41799953.0000,-0.0077,-0.0331,9.8019,0.0010,0.0040,-0.0000,24.9100
41822953.0000,0.0323,-0.0031,9.7919,0.0010,0.0040,-0.0000,25.0000
41845953.0000,-0.0377,-0.0531,9.8219,0.0010,0.0040,-0.0000,24.9100
41868953.0000,-0.0377,0.0369,9.7919,0.0010,0.0040,-0.0000,24.9100
41891953.0000,-0.0477,-0.0931,9.8119,0.0010,-0.0060,-0.0000,24.8600
41914953.0000,0.0123,-0.0331,9.8119,0.0010,-0.0060,-0.0000,24.9500
41937953.0000,0.0523,-0.0131,9.7919,-0.0090,0.0040,-0.0000,24.9500
41960953.0000,0.0023,-0.0131,9.8319,0.0010,0.0040,-0.0000,24.9500
41983953.0000,0.0523,0.0069,9.7019,0.0010,-0.0060,-0.0000,24.9100
42006953.0000,0.0223,-0.0231,9.7319,0.0010,-0.0060,-0.0000,24.9100
42029953.0000,-0.0177,0.0169,9.6619,0.0010,0.0040,-0.0000,24.9100
42052953.0000,-0.0277,-0.0031,9.7619,0.0010,-0.0060,-0.0000,24.9100
42075953.0000,0.0023,0.0069,9.8019,0.0010,0.0040,-0.0000,24.9100
42098953.0000,-0.0077,0.0069,9.7919,0.0010,0.0040,-0.0000,24.9500
42121953.0000,-0.0377,-0.0031,9.8819,0.0010,0.0040,-0.0000,24.8600
42144953.0000,0.0523,-0.0031,9.8519,0.0010,0.0040,-0.0000,24.8600
42167953.0000,-0.0077,-0.0731,9.9319,0.0010,0.0040,-0.0000,24.9500
42190953.0000,-0.0377,-0.0431,9.8619,0.0010,0.0040,-0.0000,24.8600
42213953.0000,0.0423,0.0369,9.8819,0.0010,-0.0060,-0.0000,24.8100
42236953.0000,-0.0277,-0.0331,9.8219,0.0010,0.0040,-0.0000,24.9100
42259953.0000,0.0123,0.0569,9.8119,0.0010,-0.0060,-0.0000,25.0000
42282953.0000,0.0623,0.0269,9.8419,-0.0090,0.0040,-0.0000,24.9500
42305953.0000,-0.0077,-0.0331,9.8719,0.0010,0.0040,-0.0000,24.9500
42328953.0000,0.0023,0.0069,9.7119,0.0010,0.0040,-0.0000,24.9500
42351953.0000,-0.0077,0.0269,9.7719,-0.0090,-0.0060,-0.0000,24.8600
42374953.0000,-0.0577,0.0169,9.7919,0.0010,-0.0060,-0.0000,24.9100
42397953.0000,-0.0577,-0.0731,9.7619,0.0010,0.0040,-0.0000,24.9100
42420953.0000,-0.0277,0.0369,9.8119,0.0010,-0.0060,-0.0000,24.9100
42443953.0000,-0.0077,-0.0331,9.8119,0.0010,0.0040,-0.0000,24.9100
42466953.0000,-0.0077,0.0169,9.8219,0.0010,-0.0060,-0.0000,24.8600
42489953.0000,0.0323,0.0069,9.7919,0.0010,-0.0060,-0.0000,24.8600
42512953.0000,0.0123,-0.0531,9.7719,0.0010,-0.0060,-0.0000,24.9500
42535953.0000,-0.0377,0.0169,9.8319,0.0010,-0.0060,-0.0000,24.9500
42558953.0000,-0.0277,0.0369,9.8219,0.0010,0.0040,-0.0000,24.9100
42581953.0000,-0.0777,-0.0231,9.8719,0.0010,0.0040,-0.0000,24.9100
42604953.0000,0.0723,0.0069,9.8019,0.0010,-0.0060,-0.0000,24.9100
42627953.0000,0.0223,-0.0231,9.8319,0.0010,0.0040,-0.0000,24.9100
42650953.0000,-0.0177,-0.0231,9.8119,0.0010,-0.0060,-0.0000,24.8600
42673953.0000,-0.0077,-0.0031,9.7719,0.0010,0.0040,-0.0000,24.9500
42696953.0000,0.0023,-0.0731,9.7619,0.0010,-0.0060,-0.0000,24.9500
42719953.0000,-0.0777,-0.0331,9.7419,0.0010,-0.0060,-0.0000,24.8600
42742953.0000,0.0223,-0.0131,9.8219,0.0010,-0.0060,-0.0000,24.9500
42765953.0000,-0.0077,-0.0031,9.8219,0.0010,0.0040,-0.0000,24.9100
42788953.0000,-0.0177,-0.0031,9.7919,0.0010,0.0040,-0.0000,25.0000
42811953.0000,0.0523,-0.0331,9.8819,0.0010,-0.0060,-0.0000,24.9100
42834953.0000,0.0223,-0.0031,9.8319,0.0010,-0.0060,-0.0000,24.9100
42857953.0000,0.0223,0.0069,9.8019,0.0010,0.0040,-0.0000,24.8600
42880953.0000,-0.0177,0.0769,9.8219,0.0010,-0.0060,-0.0000,24.8600
42903953.0000,-0.0377,-0.0331,9.7619,0.0010,0.0040,-0.0000,24.9500
42926953.0000,-0.0277,0.0369,9.7919,0.0010,0.0040,-0.0000,24.9500
42949953.0000,0.0223,-0.0131,9.8219,0.0010,-0.0060,-0.0000,24.9500
42972953.0000,0.0423,-0.0031,9.8119,0.0010,-0.0060,-0.0000,24.9100
42995953.0000,-0.0177,0.0169,9.7619,0.0010,-0.0060,-0.0000,24.9100
43018953.0000,0.0823,-0.0031,9.8619,0.0010,0.0040,-0.0000,24.9100
43041953.0000,-0.0277,0.0569,9.7319,0.0010,-0.0060,-0.0000,24.9500
43064953.0000,-0.0177,0.0069,9.8819,0.0010,0.0040,-0.0000,24.7700
43087953.0000,0.0123,-0.0331,9.7719,0.0010,0.0040,-0.0000,24.9500
43110953.0000,-0.0577,0.0569,9.7619,0.0010,0.0040,-0.0000,24.9500
43133953.0000,-0.0277,0.0069,9.7719,-0.0090,0.0040,-0.0000,25.0000
43156953.0000,-0.0077,-0.0231,9.8519,0.0010,0.0040,-0.0000,24.9100
43179953.0000,-0.0577,-0.0331,9.8119,0.0010,-0.0060,-0.0000,24.9100
43202953.0000,0.0423,0.0369,9.8619,0.0010,-0.0060,-0.0000,24.9100
43225953.0000,0.0023,-0.0231,9.8619,-0.0090,0.0040,-0.0000,24.9500
43248953.0000,0.0423,0.0169,9.8519,0.0010,0.0040,-0.0000,24.8600
43271953.0000,0.0523,-0.0031,9.6919,0.0010,0.0040,-0.0000,24.8600
43294953.0000,0.0023,-0.0331,9.8719,0.0010,-0.0060,-0.0000,24.8600
43317953.0000,-0.0277,0.0369,9.8119,0.0010,0.0040,-0.0000,25.0000
43340953.0000,-0.0577,0.0069,9.8019,0.0010,0.0040,-0.0000,24.9100
43363953.0000,-0.0377,-0.0231,9.8719,0.0010,0.0040,-0.0000,24.9100
43386953.0000,0.0023,-0.0131,9.7919,-0.0090,0.0040,0.0100,24.9100
43409953.0000,-0.0577,0.0369,9.8619,0.0010,0.0040,-0.0000,24.8100
43432953.0000,0.0223,-0.0231,9.8819,0.0010,0.0040,-0.0000,24.9500
43455953.0000,0.0323,-0.0131,9.8519,0.0010,0.0040,-0.0000,24.9500
