Time (us),AccelX (m/s^2),AccelY (m/s^2),AccelZ (m/s^2),GyroX (rad/s),GyroY (rad/s),GyroZ (rad/s),Temp (C)
1871954.0000,0.0147,-0.0286,9.9400,0.0018,0.0011,-0.0001,27.6400
1894953.0000,-0.1053,0.0214,9.8200,-0.0082,0.0011,-0.0001,27.7800
1917954.0000,-0.0253,-0.0186,9.9000,0.0018,-0.0089,-0.0001,27.6800
1940953.0000,-0.0053,0.0314,9.8600,0.0018,0.0011,-0.0001,27.7800
1963954.0000,-0.0253,0.0214,9.8300,0.0018,0.0011,-0.0001,27.7300
1986954.0000,0.0747,0.0614,9.8500,0.0018,0.0011,-0.0001,27.6400
2009954.0000,0.0347,0.0114,9.7200,0.0018,0.0011,-0.0001,27.8200
2032954.0000,-0.0053,-0.0086,9.7000,0.0018,0.0011,-0.0001,27.7300
2055954.0000,-0.0253,0.0314,9.7600,0.0018,0.0011,-0.0001,27.6400
2078954.0000,-0.0153,-0.0586,9.8100,-0.0082,-0.0089,-0.0001,27.6800
2101954.0000,0.0447,0.0314,9.7400,0.0018,0.0011,-0.0001,27.6800
2124954.0000,0.0147,0.0114,9.7800,0.0018,0.0011,-0.0001,27.6800
2147954.0000,-0.0953,0.0014,9.8000,0.0018,0.0011,-0.0001,27.6800
2170954.0000,-0.0053,-0.0086,9.8200,0.0018,-0.0089,-0.0001,27.6400
2193954.0000,-0.0253,-0.0186,9.9000,0.0018,0.0011,-0.0001,27.7300
2216954.0000,0.0147,0.0114,9.8100,0.0018,-0.0089,-0.0001,27.7300
2239954.0000,0.0547,0.0114,9.8500,0.0018,-0.0089,-0.0001,27.7300
2262954.0000,0.0247,-0.0086,9.7800,0.0018,-0.0089,-0.0001,27.5900
2285954.0000,0.0747,-0.0686,9.8200,0.0018,0.0011,-0.0001,27.6800
2308954.0000,-0.0053,-0.0086,9.8200,0.0018,0.0011,-0.0001,27.6800
2331954.0000,0.0147,-0.0286,9.7100,0.0018,0.0011,-0.0001,27.6800
2354954.0000,-0.0253,0.0214,9.9100,0.0018,0.0011,-0.0001,27.6800
2377954.0000,-0.0353,-0.0086,9.7900,0.0018,0.0011,-0.0001,27.6400
2400954.0000,0.0447,-0.0086,9.8700,0.0018,-0.0089,-0.0001,27.6400
2423954.0000,0.0147,0.0614,9.8400,0.0018,0.0011,-0.0001,27.7300
2446954.0000,0.0447,0.0214,9.8600,0.0018,-0.0089,-0.0001,27.7300
2469953.0000,0.0147,0.0414,9.8600,0.0018,0.0011,-0.0001,27.7800
2492954.0000,-0.0353,-0.0186,9.7500,0.0018,0.0011,-0.0001,27.6800
2515954.0000,-0.0053,-0.0586,9.8000,0.0018,0.0011,-0.0001,27.6800
2538954.0000,-0.0053,-0.0086,9.8900,-0.0082,0.0011,-0.0001,27.6800
2561954.0000,-0.0153,0.0514,9.9500,-0.0082,0.0011,-0.0001,27.7300
2584954.0000,-0.0153,-0.0186,9.8100,0.0018,0.0011,-0.0001,27.7300
2607954.0000,0.0447,0.0614,9.8500,0.0018,0.0011,-0.0001,27.7300
2630954.0000,-0.0553,-0.0286,9.8800,0.0018,0.0011,0.0099,27.6400
2653954.0000,0.0247,-0.0286,9.7800,-0.0082,0.0011,-0.0001,27.6400
2676954.0000,0.0347,-0.0286,9.8100,0.0018,0.0011,-0.0001,27.7300
2699954.0000,-0.0353,0.0514,9.7200,0.0018,0.0011,-0.0001,27.6800
2722954.0000,-0.0053,-0.0086,9.7400,0.0018,0.0011,-0.0001,27.6800
2745954.0000,0.0347,-0.0186,9.7700,-0.0082,0.0011,-0.0001,27.6800
2768954.0000,0.0147,0.0514,9.7700,0.0018,0.0011,-0.0001,27.6400
2791954.0000,0.0647,-0.0286,9.8100,-0.0082,0.0011,-0.0001,27.7300
2814954.0000,-0.0253,-0.0186,9.8100,-0.0082,0.0011,-0.0001,27.7300
2837954.0000,-0.0153,0.0114,9.8800,0.0018,0.0011,-0.0001,27.6400
2860954.0000,-0.0153,-0.0286,9.6800,0.0018,0.0011,-0.0001,27.6800
2883953.0000,-0.0653,-0.0486,9.7400,0.0018,-0.0089,-0.0001,27.7800
2906954.0000,-0.0153,-0.0086,9.7500,0.0018,0.0011,-0.0001,27.6800
2929954.0000,0.0247,0.0314,9.7800,0.0018,0.0011,-0.0001,27.6800
2952954.0000,-0.0253,-0.0086,9.8100,0.0018,0.0011,-0.0001,27.5900
2975954.0000,0.0347,0.0314,9.7600,-0.0082,0.0011,-0.0001,27.8200
2998954.0000,-0.0053,-0.0386,9.6700,-0.0082,0.0011,-0.0001,27.7300
3021954.0000,-0.0253,-0.0186,9.8800,0.0018,0.0011,-0.0001,27.6400
3044954.0000,0.0047,-0.0086,9.8300,0.0018,0.0011,-0.0001,27.6400
3067953.0000,-0.0153,0.0314,9.8100,0.0018,0.0011,-0.0001,27.7800
3090954.0000,0.0447,-0.0386,9.8100,0.0018,0.0011,-0.0001,27.6800
3113954.0000,-0.0053,0.0014,9.8800,0.0018,0.0011,-0.0001,27.6800
3136954.0000,-0.0053,-0.0286,9.8700,-0.0082,0.0011,-0.0001,27.6800
3159954.0000,-0.0253,0.0514,9.7800,0.0018,0.0011,-0.0001,27.6800
3182954.0000,0.0047,-0.0086,9.8300,0.0018,0.0011,-0.0001,27.6400
3205954.0000,0.0147,-0.0286,9.8200,0.0018,0.0011,-0.0001,27.7300
3228954.0000,-0.0453,-0.0386,9.7900,0.0018,0.0011,-0.0001,27.7300
3251954.0000,0.0347,0.0114,9.8500,0.0018,0.0011,-0.0001,27.7300
3274954.0000,0.0047,0.0414,9.8200,0.0018,0.0011,-0.0001,27.6800
3297953.0000,-0.0053,0.0214,9.8500,0.0018,0.0011,-0.0001,27.7800
3320954.0000,-0.0153,-0.0086,9.8600,0.0018,0.0011,-0.0001,27.6800
3343953.0000,-0.0353,-0.0686,9.6700,0.0018,0.0011,-0.0001,27.7800
3366954.0000,0.0447,0.0514,9.8200,0.0018,0.0011,-0.0001,27.7300
3389954.0000,-0.0153,0.0014,9.7900,-0.0082,0.0011,-0.0001,27.6400
3412954.0000,-0.0053,-0.0086,9.8000,0.0018,0.0011,-0.0001,27.7300
3435954.0000,-0.0053,-0.0486,9.7900,0.0018,0.0011,-0.0001,27.7300
3458954.0000,-0.0153,0.0014,9.7200,0.0018,0.0011,-0.0001,27.7300
3481954.0000,0.0547,0.0014,9.8200,0.0018,0.0011,-0.0001,27.7300
3504954.0000,0.0147,-0.0086,9.7900,0.0018,-0.0089,-0.0001,27.6800
3527953.0000,-0.0053,-0.0386,9.8100,0.0018,0.0011,-0.0001,27.7800
3550953.0000,0.0247,0.0914,9.7200,0.0018,0.0011,-0.0001,27.7800
3573954.0000,-0.0053,0.0014,9.7600,0.0018,0.0011,-0.0001,27.6400
3596954.0000,0.0947,-0.0586,9.7800,-0.0082,0.0011,-0.0001,27.6400
3619954.0000,-0.0453,-0.0186,9.8700,0.0018,0.0011,-0.0001,27.7300
3642954.0000,-0.0153,-0.0186,9.7700,0.0018,0.0011,-0.0001,27.7300
3665954.0000,0.0147,0.0514,9.8000,0.0018,0.0011,-0.0001,27.6800
3688954.0000,-0.0353,-0.0386,9.8200,0.0018,0.0011,-0.0001,27.6800
3711953.0000,-0.0153,0.0014,9.7800,-0.0082,0.0011,-0.0001,27.7800
3734954.0000,-0.0253,-0.0186,9.8200,-0.0082,0.0011,-0.0001,27.6800
3757953.0000,0.0547,0.0114,9.8300,-0.0082,-0.0089,-0.0001,27.7800
3780954.0000,-0.0653,-0.0386,9.8400,-0.0082,0.0011,-0.0001,27.6400
3803954.0000,-0.0853,0.0014,9.8300,0.0018,0.0011,-0.0001,27.6400
3826954.0000,-0.0353,-0.0386,9.7100,0.0018,0.0011,-0.0001,27.7300
3849954.0000,-0.0053,-0.0386,9.9200,0.0018,0.0011,-0.0001,27.7300
3872954.0000,0.0247,-0.0086,9.6800,0.0018,0.0011,-0.0001,27.6800
3895953.0000,-0.0153,-0.0086,9.9100,0.0018,0.0011,-0.0001,27.7800
3918953.0000,0.0447,0.0414,10.0200,0.0018,0.0011,-0.0001,27.7800
3941954.0000,-0.0253,-0.0686,10.0400,0.0018,-0.0089,-0.0001,27.6800
3964954.0000,0.0147,0.0114,9.8900,0.0018,-0.0089,-0.0001,27.6400
3987954.0000,-0.0053,-0.0186,9.8700,0.0018,0.0011,-0.0001,27.7300
4010954.0000,0.0047,-0.0086,9.8900,0.0018,0.0011,-0.0001,27.7300
4033954.0000,0.0147,0.0914,9.9000,0.0018,0.0011,-0.0001,27.7300
4056954.0000,0.0347,0.0414,9.7700,0.0018,0.0011,-0.0001,27.7300
4079954.0000,0.0447,-0.0786,9.7600,0.0018,0.0011,-0.0001,27.6800
4102953.0000,0.0247,0.0214,9.7400,0.0018,0.0011,-0.0001,27.7800
4125954.0000,0.0047,0.0014,9.8300,0.0018,0.0011,-0.0001,27.5900
4148954.0000,0.0347,0.0514,9.9800,0.0018,0.0011,-0.0001,27.6800
4171954.0000,0.0347,-0.0486,9.9000,0.0018,0.0011,-0.0001,27.7300
4194954.0000,-0.0353,-0.0086,9.8300,0.0018,0.0011,-0.0001,27.6400
4217954.0000,-0.0053,0.0114,9.8300,0.0018,0.0011,-0.0001,27.6400
4240954.0000,0.0247,0.0414,9.8000,-0.0082,0.0011,-0.0001,27.7300
4263954.0000,-0.0253,-0.0186,9.7600,0.0018,0.0011,-0.0001,27.7300
4286954.0000,0.0047,0.0214,9.8700,0.0018,0.0011,-0.0001,27.6400
4309954.0000,-0.0553,-0.0086,9.8800,0.0018,0.0011,-0.0001,27.6800
4332954.0000,-0.0053,-0.0486,9.7600,0.0018,0.0011,-0.0001,27.6800
4355954.0000,0.0147,0.0214,9.8100,0.0018,-0.0089,-0.0001,27.6800
4378954.0000,-0.0153,-0.0086,9.7400,-0.0082,0.0011,-0.0001,27.7300
4401954.0000,0.0347,0.0014,9.7700,0.0018,0.0011,-0.0001,27.7300
4424954.0000,-0.0153,0.0214,9.7700,0.0018,0.0011,-0.0001,27.7300
4447954.0000,0.0147,0.0314,9.7800,-0.0082,0.0011,-0.0001,27.6400
4470954.0000,0.0247,-0.0386,9.8500,-0.0082,-0.0089,-0.0001,27.6800
4493954.0000,-0.0253,0.0014,9.7200,0.0018,0.0011,-0.0001,27.6800
4516953.0000,0.0247,-0.0086,9.7900,0.0018,-0.0089,-0.0001,27.7800
4539953.0000,-0.0853,0.0014,9.8100,0.0018,0.0011,-0.0001,27.7800
4562953.0000,0.0547,-0.0186,9.8200,-0.0082,0.0011,-0.0001,27.7800
4585954.0000,-0.0353,-0.0086,9.9100,0.0018,0.0011,-0.0001,27.7300
4608954.0000,-0.0653,0.0014,9.9200,0.0018,0.0011,-0.0001,27.7300
4631954.0000,0.0047,0.0014,9.7300,0.0018,-0.0089,-0.0001,27.7300
4654954.0000,-0.0753,0.0114,9.8400,-0.0082,0.0011,-0.0001,27.7300
4677954.0000,-0.0653,-0.0186,9.8000,0.0018,0.0011,-0.0001,27.6800
4700953.0000,-0.0153,-0.0286,9.7600,0.0018,0.0011,-0.0001,27.7800
4723954.0000,-0.0153,-0.0286,9.8400,0.0018,0.0011,-0.0001,27.6800
4746954.0000,0.0147,-0.0086,9.8500,0.0018,0.0011,-0.0001,27.6800
4769954.0000,0.0347,-0.0086,9.8100,-0.0082,0.0011,-0.0001,27.7300
4792954.0000,0.0547,-0.0186,9.8100,0.0018,0.0011,-0.0001,27.7300
4815954.0000,0.0147,-0.0286,9.8700,0.0018,0.0011,-0.0001,27.7300
4838954.0000,0.0147,-0.0186,9.7700,0.0018,0.0011,-0.0001,27.7300
4861954.0000,0.0447,-0.0086,9.7200,-0.0082,0.0011,-0.0001,27.6400
4884954.0000,0.0047,0.0014,9.8000,0.0018,-0.0089,-0.0001,27.6800
4907954.0000,-0.0053,0.0214,9.7700,0.0018,0.0011,-0.0001,27.5900
4930953.0000,0.0147,0.0014,9.8600,-0.0082,0.0011,-0.0001,27.7800
4953953.0000,0.0147,0.0114,9.7200,0.0018,0.0011,-0.0001,27.7800
4976954.0000,-0.0153,-0.0086,9.7400,-0.0082,0.0011,-0.0001,27.7300
4999954.0000,-0.0053,0.0114,9.7200,0.0018,0.0011,-0.0001,27.7300
5022954.0000,0.0047,0.0614,9.7900,0.0018,0.0011,-0.0001,27.8200
5045954.0000,-0.0553,-0.0086,9.8200,0.0018,-0.0089,-0.0001,27.6400
5068954.0000,-0.0353,0.0314,9.7100,0.0018,0.0011,-0.0001,27.6400
5091954.0000,0.0047,0.0014,9.8700,0.0018,0.0011,-0.0001,27.6400
5114954.0000,0.0747,0.0014,9.8500,0.0018,0.0011,-0.0001,27.6800
5137954.0000,0.0147,0.0314,9.8300,0.0018,0.0011,-0.0001,27.6800
5160954.0000,0.0447,-0.0286,9.7800,0.0018,0.0011,-0.0001,27.6800
5183954.0000,-0.0453,-0.0086,9.8200,0.0018,0.0011,-0.0001,27.6400
5206954.0000,0.0247,-0.0086,9.8700,0.0018,0.0011,-0.0001,27.7300
5229954.0000,0.0247,-0.0286,9.7900,0.0018,-0.0089,-0.0001,27.6400
5252954.0000,0.0247,0.0014,9.9000,0.0018,0.0011,-0.0001,27.7300
5275954.0000,-0.0153,-0.0086,9.7600,-0.0082,0.0011,-0.0001,27.6800
5298953.0000,0.0247,0.0214,9.8200,0.0018,0.0011,-0.0001,27.7800
5321954.0000,0.0847,0.0314,9.8200,0.0018,0.0011,-0.0001,27.6800
5344953.0000,-0.0353,0.0314,9.8300,0.0018,0.0011,-0.0001,27.7800
5367954.0000,0.0247,0.0314,9.7300,0.0018,0.0011,-0.0001,27.6400
5390954.0000,0.0147,0.0014,9.8200,0.0018,0.0011,-0.0001,27.6400
5413954.0000,0.0147,-0.0086,9.8700,-0.0082,0.0011,-0.0001,27.8200
5436954.0000,0.0247,0.0114,9.7700,-0.0082,0.0011,-0.0001,27.6400
5459954.0000,-0.0253,-0.0486,9.7400,0.0018,0.0011,-0.0001,27.8200
5482954.0000,0.0447,-0.0686,9.8300,0.0018,0.0011,-0.0001,27.5900
5505954.0000,-0.0353,-0.0786,9.8300,-0.0082,0.0011,-0.0001,27.6800
5528954.0000,-0.0553,-0.0086,9.9300,0.0018,0.0011,-0.0001,27.6800
5551954.0000,-0.0253,0.0714,9.6700,-0.0082,0.0011,-0.0001,27.6800
5574954.0000,0.0147,0.0114,9.8000,0.0018,0.0011,-0.0001,27.7300
5597954.0000,0.0447,0.0514,9.7800,-0.0082,0.0011,-0.0001,27.7300
5620954.0000,-0.0153,-0.0086,9.9700,0.0018,0.0011,-0.0001,27.8200
5643954.0000,0.0147,0.0114,9.8200,-0.0082,0.0011,-0.0001,27.7300
5666954.0000,-0.0153,-0.0386,9.9000,0.0018,0.0011,-0.0001,27.6800
5689954.0000,0.0247,0.0014,9.7300,0.0018,0.0011,-0.0001,27.6800
5712954.0000,0.0247,0.0014,9.9100,0.0018,0.0011,-0.0001,27.5900
5735954.0000,0.0147,0.0814,9.7900,-0.0082,0.0011,0.0099,27.6800
5758953.0000,-0.0153,0.0314,9.7100,-0.0082,-0.0089,-0.0001,27.7800
5781954.0000,-0.0053,-0.0586,9.8400,0.0018,0.0011,-0.0001,27.7300
5804954.0000,0.0647,0.0114,9.7100,0.0018,0.0011,-0.0001,27.7300
5827954.0000,-0.0153,0.0314,9.8900,-0.0082,0.0011,-0.0001,27.7300
5850954.0000,-0.1053,0.0614,9.7100,-0.0082,0.0011,-0.0001,27.7300
5873954.0000,0.0747,0.0114,9.9300,0.0018,-0.0089,-0.0001,27.7300
5896954.0000,0.1047,-0.0586,9.7600,0.0018,0.0011,-0.0001,27.8200
5919954.0000,-0.0653,0.1014,9.8200,0.0018,-0.0089,-0.0001,27.6800
5942953.0000,-0.0453,0.1114,9.7200,0.0018,0.0011,-0.0001,27.7800
5965953.0000,0.0347,0.0014,9.7700,0.0018,-0.0089,-0.0001,27.7800
5988954.0000,0.0747,-0.0886,9.8600,-0.0082,0.0011,-0.0001,27.7300
6011954.0000,-0.0853,0.0214,9.7900,0.0018,-0.0089,-0.0001,27.7300
6034954.0000,-0.0353,-0.0086,9.8300,0.0018,0.0011,-0.0001,27.7300
6057954.0000,0.0247,-0.0386,9.7500,0.0018,-0.0089,-0.0001,27.7300
6080953.0000,0.1747,0.0014,9.7400,-0.0082,0.0011,-0.0001,27.7800
6103954.0000,-0.0453,0.0214,9.7000,0.0018,-0.0089,-0.0001,27.6800
6126954.0000,-0.1153,0.0614,10.0500,-0.0082,0.0011,-0.0001,27.6800
6149954.0000,-0.0153,-0.0586,9.5700,-0.0082,0.0011,-0.0001,27.6800
6172954.0000,0.1347,-0.0686,9.8900,0.0018,0.0011,-0.0001,27.7300
6195954.0000,-0.0053,-0.0786,9.8400,0.0018,0.0011,0.0099,27.7300
6218954.0000,-0.1053,0.1014,9.6700,-0.0082,0.0011,-0.0001,27.7300
6241954.0000,-0.1253,0.0314,9.8200,0.0018,0.0011,-0.0001,27.8200
6264954.0000,0.0847,-0.0586,9.7900,-0.0082,0.0011,-0.0001,27.7300
6287953.0000,0.0047,-0.0386,9.7600,0.0018,0.0011,-0.0001,27.7800
6310954.0000,-0.0753,0.0814,9.8100,0.0018,0.0011,-0.0001,27.6800
6333954.0000,-0.0153,-0.0386,9.7800,0.0018,0.0011,-0.0001,27.6800
6356954.0000,0.0147,-0.0986,9.8600,0.0018,0.0011,-0.0001,27.6800
6379954.0000,-0.0653,-0.0486,9.7300,0.0018,0.0011,-0.0001,27.6400
6402954.0000,-0.0053,0.0714,9.7800,0.0018,0.0011,-0.0001,27.6400
6425954.0000,0.0947,-0.0386,9.7300,0.0018,0.0011,-0.0001,27.6400
6448954.0000,-0.0553,-0.0686,9.7900,0.0018,0.0011,-0.0001,27.7300
6471954.0000,-0.0053,0.0614,9.7800,0.0018,0.0011,-0.0001,27.6800
6494954.0000,0.0047,-0.0286,9.7500,0.0018,0.0011,-0.0001,27.6800
6517954.0000,-0.0353,-0.0286,9.9300,0.0018,0.0011,-0.0001,27.6800
6540953.0000,-0.0453,-0.0186,9.8600,0.0018,0.0011,-0.0001,27.7800
6563953.0000,-0.0053,0.0114,9.7100,-0.0082,-0.0089,-0.0001,27.7800
6586954.0000,0.0047,-0.0386,9.8000,-0.0082,0.0011,-0.0001,27.7300
6609954.0000,-0.0053,-0.0186,9.8700,0.0018,0.0011,-0.0001,27.7300
6632954.0000,-0.0353,0.0414,9.9000,-0.0082,0.0011,-0.0001,27.7300
6655954.0000,0.0047,0.0014,9.7600,0.0018,0.0011,-0.0001,27.6400
6678954.0000,0.0147,0.0214,9.7800,0.0018,0.0011,-0.0001,27.6400
6701954.0000,-0.0053,-0.0386,9.8100,-0.0082,0.0011,-0.0001,27.7300
6724953.0000,-0.0653,0.0114,9.8100,0.0018,0.0011,-0.0001,27.7800
6747954.0000,-0.0353,0.0114,9.8000,0.0018,0.0011,-0.0001,27.5900
6770954.0000,-0.0153,-0.0086,9.7700,0.0018,0.0011,-0.0001,27.6400
6793954.0000,0.0247,0.0114,9.7600,0.0018,0.0011,-0.0001,27.7300
6816954.0000,-0.0753,0.0314,9.8400,0.0018,0.0011,-0.0001,27.6400
6839954.0000,0.0447,0.0014,9.7200,-0.0082,0.0011,-0.0001,27.7300
6862954.0000,0.0447,-0.0286,9.8100,0.0018,-0.0089,-0.0001,27.7300
6885954.0000,0.0447,0.0514,9.8400,0.0018,0.0011,-0.0001,27.6800
6908954.0000,-0.0653,-0.0586,9.9100,0.0018,0.0011,-0.0001,27.6800
6931953.0000,-0.0153,0.0014,9.8400,0.0018,0.0011,-0.0001,27.7800
6954953.0000,0.0047,0.0014,9.7800,-0.0082,0.0011,-0.0001,27.7800
6977954.0000,-0.0053,0.0114,9.8600,0.0018,0.0011,-0.0001,27.7300
7000954.0000,-0.0053,-0.0086,9.7600,0.0018,0.0011,-0.0001,27.7300
7023954.0000,0.0647,-0.0086,9.7300,0.0018,0.0011,-0.0001,27.7300
7046954.0000,0.0347,0.0014,9.8100,0.0018,-0.0089,-0.0001,27.7300
7069954.0000,-0.0153,0.0214,9.8600,0.0018,0.0011,-0.0001,27.7300
7092953.0000,-0.0753,0.0214,9.7300,0.0018,0.0011,-0.0001,27.7800
7115954.0000,0.0347,-0.0486,9.8500,0.0018,0.0011,-0.0001,27.6800
7138954.0000,-0.0353,-0.0186,9.7700,0.0018,0.0011,-0.0001,27.6800
7161953.0000,-0.0253,0.0514,9.8300,0.0018,0.0011,-0.0001,27.7800
7184954.0000,-0.0453,-0.0086,9.8600,0.0018,0.0011,-0.0001,27.6400
7207954.0000,0.0047,-0.0186,9.8000,0.0018,0.0011,-0.0001,27.7300
7230954.0000,0.0347,0.0314,9.7600,0.0018,0.0011,-0.0001,27.7300
7253954.0000,-0.0453,-0.0186,9.8600,0.0018,0.0011,-0.0001,27.6400
7276954.0000,0.0047,0.0114,9.8800,-0.0082,0.0011,-0.0001,27.6800
7299954.0000,-0.0353,0.0214,9.8200,0.0018,-0.0089,-0.0001,27.6800
7322954.0000,-0.0053,0.0514,9.8300,0.0018,0.0011,-0.0001,27.6800
7345953.0000,-0.0453,-0.0586,9.8500,-0.0082,0.0011,-0.0001,27.7800
7368953.0000,0.0947,0.0114,9.7800,-0.0082,0.0011,-0.0001,27.7800
7391954.0000,0.0147,-0.0186,9.8200,0.0018,0.0011,-0.0001,27.6400
7414954.0000,-0.0053,0.0114,9.8200,0.0018,0.0011,0.0099,27.6400
7437954.0000,-0.0553,-0.0186,9.7400,-0.0082,0.0011,-0.0001,27.6400
7460954.0000,-0.0053,0.0214,9.8600,0.0018,0.0011,-0.0001,27.7300
7483954.0000,0.0447,-0.0086,9.8100,0.0018,0.0011,-0.0001,27.6400
7506954.0000,0.0147,0.0214,9.8400,0.0018,0.0011,-0.0001,27.7300
7529954.0000,-0.0053,0.1014,9.8100,0.0018,0.0011,-0.0001,27.6800
7552954.0000,-0.0053,0.0514,9.7400,0.0018,0.0011,-0.0001,27.6800
7575954.0000,0.0247,0.0114,9.8100,0.0018,0.0011,-0.0001,27.7300
7598954.0000,-0.0053,-0.0486,9.8500,0.0018,0.0011,-0.0001,27.7300
7621954.0000,-0.0253,-0.0386,9.8200,0.0018,0.0011,-0.0001,27.7300
7644954.0000,-0.0153,0.0414,9.8100,0.0018,0.0011,-0.0001,27.6400
7667954.0000,-0.0453,-0.0586,9.7800,-0.0082,-0.0089,-0.0001,27.6400
7690954.0000,0.0547,0.0014,9.8500,0.0018,0.0011,-0.0001,27.6800
7713953.0000,-0.0353,0.0014,9.8400,0.0018,0.0011,-0.0001,27.7800
7736954.0000,0.0347,-0.0186,9.8800,0.0018,0.0011,-0.0001,27.6800
7759954.0000,0.0347,0.0314,9.7700,0.0018,0.0011,-0.0001,27.6800
7782954.0000,0.0247,-0.0086,9.8500,0.0018,0.0011,-0.0001,27.6400
7805954.0000,0.0147,-0.0086,9.7900,-0.0082,0.0011,-0.0001,27.7300
7828954.0000,-0.0553,0.0214,9.8300,0.0018,0.0011,-0.0001,27.6400
7851954.0000,0.0647,0.0414,9.8700,-0.0082,0.0011,-0.0001,27.7300
7874954.0000,-0.0253,0.0114,9.8200,0.0018,0.0011,-0.0001,27.6800
7897954.0000,0.0647,0.0114,9.7300,0.0018,0.0011,-0.0001,27.6800
7920954.0000,-0.0153,-0.0086,9.8000,-0.0082,0.0011,-0.0001,27.6800
7943953.0000,0.0447,-0.0486,9.9000,0.0018,0.0011,-0.0001,27.7800
7966953.0000,0.0747,-0.0286,9.8500,-0.0082,0.0011,-0.0001,27.7800
7989954.0000,-0.0253,0.0014,9.8100,0.0018,0.0011,-0.0001,27.7300
8012954.0000,-0.0253,0.0414,9.7800,0.0018,0.0011,-0.0001,27.7300
8035954.0000,0.0247,-0.0186,9.8400,0.0018,-0.0089,-0.0001,27.7300
8058954.0000,-0.0553,0.0514,9.8500,-0.0082,0.0011,-0.0001,27.6400
8081954.0000,0.0147,0.0714,9.7600,0.0018,0.0011,-0.0001,27.6800
8104954.0000,0.0147,0.0414,9.7200,0.0018,0.0011,-0.0001,27.6800
8127954.0000,-0.0253,-0.0086,9.7600,0.0018,0.0011,-0.0001,27.6800
8150954.0000,-0.0353,0.0114,9.7800,0.0018,0.0011,-0.0001,27.6800
8173954.0000,0.0047,0.0014,9.7700,0.0018,0.0011,-0.0001,27.7300
8196954.0000,-0.0153,0.0114,9.7300,0.0018,0.0011,-0.0001,27.6400
8219954.0000,-0.0453,-0.0386,9.7800,0.0018,0.0011,-0.0001,27.7300
8242954.0000,0.0047,-0.0386,9.8500,-0.0082,0.0011,-0.0001,27.7300
8265954.0000,0.0547,-0.0286,9.8300,0.0018,0.0011,-0.0001,27.7300
8288954.0000,0.0347,-0.0486,9.8300,0.0018,0.0011,-0.0001,27.6400
8311953.0000,-0.0353,-0.0186,9.8500,0.0018,0.0011,-0.0001,27.7800
8334954.0000,0.0147,0.0114,9.8600,0.0018,0.0011,-0.0001,27.6800
8357954.0000,-0.0153,0.0014,9.7700,0.0018,0.0011,-0.0001,27.6800
8380954.0000,0.0147,0.0414,9.7800,0.0018,0.0011,-0.0001,27.8200
8403954.0000,0.0647,-0.0086,9.7200,0.0018,0.0011,-0.0001,27.6400
8426954.0000,0.0347,-0.0086,9.9000,0.0018,0.0011,-0.0001,27.7300
8449954.0000,-0.0153,0.0314,9.7600,0.0018,0.0011,-0.0001,27.6400
8472954.0000,0.0347,-0.0586,9.8400,0.0018,0.0011,-0.0001,27.7300
8495953.0000,-0.0453,0.0614,9.7600,0.0018,0.0011,-0.0001,27.7800
8518954.0000,-0.0053,0.0314,9.8100,0.0018,-0.0089,-0.0001,27.6800
8541954.0000,0.0347,-0.0186,9.8200,-0.0082,0.0011,-0.0001,27.6800
8564954.0000,-0.0153,0.0514,9.7300,0.0018,0.0011,-0.0001,27.6800
8587954.0000,-0.0653,-0.0586,9.7100,0.0018,0.0011,-0.0001,27.5400
8610954.0000,-0.0653,0.0414,9.8000,0.0018,0.0011,-0.0001,27.7300
8633954.0000,0.0647,0.0114,9.8700,0.0018,0.0011,-0.0001,27.6400
8656954.0000,0.0247,0.0114,9.7500,0.0018,0.0011,-0.0001,27.6400
8679954.0000,0.0147,0.0214,9.7900,-0.0082,0.0011,-0.0001,27.6800
8702953.0000,-0.0253,0.0114,9.8400,0.0018,0.0011,-0.0001,27.7800
8725954.0000,-0.0053,0.0714,9.8200,0.0018,0.0011,-0.0001,27.6800
8748954.0000,0.0347,0.0414,9.7500,0.0018,0.0011,-0.0001,27.6800
8771954.0000,0.0647,0.0314,9.8400,0.0018,0.0011,-0.0001,27.5900
8794954.0000,-0.0253,0.0214,9.7500,0.0018,0.0011,-0.0001,27.6400
8817954.0000,0.0347,-0.0386,9.7700,0.0018,0.0011,-0.0001,27.6400
8840954.0000,0.0147,-0.0786,9.8200,0.0018,0.0011,-0.0001,27.6400
8863954.0000,0.0147,-0.0486,9.7900,0.0018,0.0011,-0.0001,27.6400
8886953.0000,-0.0053,0.0014,9.7400,-0.0082,0.0011,-0.0001,27.7800
8909953.0000,0.0047,0.0114,9.7900,0.0018,0.0011,-0.0001,27.7800
8932954.0000,0.0047,-0.0486,9.8300,-0.0082,0.0011,-0.0001,27.6800
8955954.0000,-0.0153,0.0114,9.8200,0.0018,0.0011,-0.0001,27.6800
8978954.0000,0.0247,-0.0586,9.8300,0.0018,0.0011,-0.0001,27.7300
9001954.0000,-0.0253,0.0714,9.8000,0.0018,-0.0089,-0.0001,27.7300
9024954.0000,0.0047,0.0314,9.7700,0.0018,0.0011,-0.0001,27.6400
9047954.0000,0.0547,0.0514,9.7100,0.0018,0.0011,-0.0001,27.7300
9070954.0000,-0.0053,0.0114,9.7900,0.0018,0.0011,-0.0001,27.7300
9093954.0000,-0.0253,-0.0186,9.8200,0.0018,0.0011,-0.0001,27.7300
9116953.0000,0.0347,0.0514,9.8600,0.0018,0.0011,-0.0001,27.7800
9139954.0000,-0.0253,-0.0186,9.7000,-0.0082,0.0011,-0.0001,27.6800
9162954.0000,-0.0253,-0.0286,9.8700,0.0018,0.0011,-0.0001,27.6800
9185954.0000,-0.0353,0.0514,9.7800,-0.0082,0.0011,-0.0001,27.7300
9208954.0000,0.0247,-0.0086,9.9000,0.0018,0.0011,-0.0001,27.7300
9231954.0000,-0.0353,-0.0686,9.8400,0.0018,0.0011,-0.0001,27.7300
9254954.0000,-0.0253,-0.0386,9.7800,-0.0082,0.0011,-0.0001,27.7300
9277954.0000,-0.0153,-0.0386,9.8000,0.0018,0.0011,-0.0001,27.6800
9300954.0000,0.0147,-0.0386,9.8200,0.0018,0.0011,-0.0001,27.6800
9323954.0000,0.0147,-0.0186,9.7900,0.0018,0.0011,-0.0001,27.6800
9346953.0000,0.0347,-0.0386,9.8200,0.0018,0.0011,-0.0001,27.7800
9369954.0000,0.0247,0.0414,9.7600,-0.0082,0.0011,-0.0001,27.6800
9392954.0000,0.0047,0.0114,9.8300,-0.0082,-0.0089,-0.0001,27.7300
9415954.0000,0.0147,0.0314,9.7000,-0.0082,0.0011,-0.0001,27.8200
9438954.0000,0.0047,0.0114,9.8200,-0.0082,0.0011,-0.0001,27.7300
9461954.0000,-0.0053,0.0114,9.7300,0.0018,0.0011,-0.0001,27.7300
9484953.0000,0.0047,0.0214,9.7900,0.0018,0.0011,-0.0001,27.7800
9507954.0000,-0.0053,-0.0386,9.8000,0.0018,0.0011,-0.0001,27.6800
9530954.0000,0.0347,-0.0086,9.8200,0.0018,0.0011,-0.0001,27.6800
9553953.0000,0.0647,-0.0286,9.7400,0.0018,0.0011,-0.0001,27.7800
9576954.0000,0.0147,0.0014,9.8200,0.0018,0.0011,-0.0001,27.7300
9599954.0000,-0.0153,-0.0386,9.8300,0.0018,0.0011,-0.0001,27.7300
9622954.0000,0.0647,-0.0386,9.7600,0.0018,0.0011,-0.0001,27.7300
9645954.0000,0.0247,0.0114,9.8200,0.0018,0.0011,-0.0001,27.7300
9668954.0000,0.0147,-0.0086,9.8100,0.0018,-0.0089,-0.0001,27.7300
9691954.0000,-0.0553,-0.0086,9.6700,-0.0082,0.0011,-0.0001,27.6800
9714954.0000,0.0147,-0.0086,9.8600,-0.0082,0.0011,-0.0001,27.6800
9737954.0000,0.0247,0.0314,9.8300,0.0018,0.0011,-0.0001,27.6800
9760953.0000,0.0047,0.0014,9.7900,0.0018,0.0011,-0.0001,27.7800
9783954.0000,-0.0453,0.0014,9.7500,0.0018,0.0011,-0.0001,27.6400
9806954.0000,0.0047,-0.0486,9.8100,-0.0082,0.0011,-0.0001,27.7300
9829954.0000,-0.0453,0.0314,9.8400,0.0018,0.0011,-0.0001,27.7300
9852954.0000,0.0147,0.0714,9.7900,0.0018,0.0011,-0.0001,27.7300
9875954.0000,-0.0053,-0.0486,9.8400,0.0018,0.0011,-0.0001,27.5400
9898954.0000,-0.0253,-0.0086,9.8500,0.0018,-0.0089,-0.0001,27.6400
9921954.0000,-0.0353,0.0414,9.7200,0.0018,0.0011,-0.0001,27.6800
9944954.0000,0.0047,-0.0386,9.8000,0.0018,0.0011,-0.0001,27.6800
9967954.0000,0.0347,-0.0386,9.8500,0.0018,-0.0089,-0.0001,27.6800
9990954.0000,0.0347,0.0214,9.9500,0.0018,0.0011,-0.0001,27.6400
10013954.0000,-0.0453,-0.0086,9.8800,0.0018,0.0011,-0.0001,27.7300
10036954.0000,0.0047,0.0414,9.8400,-0.0082,0.0011,-0.0001,27.6400
10059954.0000,-0.0653,0.0614,9.7500,0.0018,0.0011,-0.0001,27.6400
10082954.0000,0.0247,0.0214,9.8500,0.0018,0.0011,-0.0001,27.6800
10105954.0000,0.0347,-0.0286,9.7300,0.0018,-0.0089,-0.0001,27.6800
10128954.0000,-0.0353,0.0214,9.8000,0.0018,0.0011,-0.0001,27.6800
10151954.0000,0.0347,-0.0586,9.7500,0.0018,-0.0089,-0.0001,27.6800
10174954.0000,0.0747,-0.0586,9.7600,0.0018,0.0011,-0.0001,27.6800
10197954.0000,0.0047,0.0114,9.9000,0.0018,0.0011,-0.0001,27.7300
10220954.0000,0.0247,-0.0086,9.8500,0.0018,0.0011,-0.0001,27.7300
10243954.0000,0.0747,0.0514,9.7800,0.0018,0.0011,-0.0001,27.7300
10266954.0000,-0.0053,-0.0386,9.7900,0.0018,0.0011,-0.0001,27.6400
10289953.0000,-0.0053,0.0014,9.8200,0.0018,0.0011,-0.0001,27.7800
10312953.0000,0.0147,-0.0086,9.7100,0.0018,0.0011,-0.0001,27.7800
10335953.0000,0.0247,0.0014,9.7600,0.0018,0.0011,-0.0001,27.7800
10358954.0000,0.0147,0.0414,9.8500,0.0018,0.0011,-0.0001,27.6800
10381954.0000,0.0247,0.0714,9.7500,0.0018,0.0011,-0.0001,27.7300
10404954.0000,0.0147,-0.0186,9.7600,-0.0082,0.0011,-0.0001,27.6400
10427954.0000,0.0447,-0.0086,9.8500,0.0018,0.0011,-0.0001,27.7300
10450954.0000,0.0147,0.0114,9.7900,0.0018,0.0011,-0.0001,27.7300
10473954.0000,-0.0053,0.0414,9.7900,0.0018,0.0011,-0.0001,27.7300
10496954.0000,0.0247,0.0214,9.8600,0.0018,0.0011,-0.0001,27.6800
10519954.0000,-0.0053,-0.0486,9.7100,0.0018,0.0011,-0.0001,27.6800
10542953.0000,0.0147,-0.0086,9.7800,0.0018,0.0011,-0.0001,27.7800
10565954.0000,0.0847,0.0414,9.7700,0.0018,0.0011,-0.0001,27.5900
10588954.0000,-0.0053,-0.0286,9.7900,-0.0082,0.0011,-0.0001,27.6400
10611954.0000,0.0047,0.0214,9.8400,-0.0082,0.0011,-0.0001,27.7300
10634954.0000,0.0147,-0.0386,9.8600,0.0018,0.0011,-0.0001,27.7300
10657954.0000,0.0647,0.0114,9.8200,-0.0082,0.0011,-0.0001,27.7300
10680954.0000,-0.0153,0.0414,9.7900,0.0018,0.0011,-0.0001,27.6400
10703954.0000,-0.0153,0.0114,9.7400,0.0018,0.0011,-0.0001,27.7300
10726953.0000,-0.0053,0.0314,9.7700,0.0018,0.0011,-0.0001,27.7800
10749954.0000,-0.0053,0.0014,9.8400,0.0018,0.0011,-0.0001,27.6800
10772954.0000,0.0347,0.0114,9.8500,0.0018,0.0011,-0.0001,27.6800
10795954.0000,-0.0253,0.0314,9.7900,0.0018,-0.0089,-0.0001,27.7300
10818954.0000,0.0147,0.0314,9.8100,0.0018,0.0011,-0.0001,27.6400
10841954.0000,-0.0253,0.0114,9.8100,-0.0082,0.0011,-0.0001,27.7300
10864954.0000,0.0447,0.0114,9.7400,0.0018,0.0011,-0.0001,27.6400
10887953.0000,-0.0353,0.0414,9.7700,0.0018,0.0011,-0.0001,27.7800
10910954.0000,-0.0553,0.0014,9.7900,0.0018,0.0011,-0.0001,27.6800
10933954.0000,0.0047,-0.0386,9.7300,0.0018,0.0011,-0.0001,27.5900
10956954.0000,-0.0253,0.0814,9.7600,0.0018,0.0011,-0.0001,27.6800
10979954.0000,0.0347,-0.0186,9.7800,-0.0082,-0.0089,-0.0001,27.7300
11002954.0000,0.0047,-0.0386,9.7900,0.0018,0.0011,-0.0001,27.7300
11025954.0000,-0.0253,-0.0386,9.8000,0.0018,0.0011,-0.0001,27.7300
11048954.0000,0.0547,-0.0286,9.8000,0.0018,0.0011,-0.0001,27.7300
11071954.0000,-0.0153,-0.0386,9.7800,0.0018,0.0011,-0.0001,27.7300
11094954.0000,-0.0253,0.0414,9.7600,0.0018,-0.0089,-0.0001,27.6800
11117954.0000,-0.0753,-0.0386,9.7100,0.0018,-0.0089,-0.0001,27.6800
11140954.0000,-0.0353,-0.0086,9.8800,0.0018,0.0011,-0.0001,27.6800
11163954.0000,-0.0153,0.0014,9.7100,0.0018,-0.0089,-0.0001,27.5900
11186954.0000,0.0147,-0.0286,9.8000,0.0018,0.0011,-0.0001,27.7300
11209954.0000,-0.0653,0.0114,9.7900,0.0018,0.0011,-0.0001,27.6400
11232954.0000,-0.0353,-0.0386,9.7900,0.0018,0.0011,-0.0001,27.7300
11255954.0000,0.0547,-0.0086,9.8100,-0.0082,0.0011,-0.0001,27.7300
11278954.0000,0.0347,-0.0186,9.8000,0.0018,0.0011,-0.0001,27.7300
11301954.0000,0.0347,-0.0286,9.7700,0.0018,0.0011,-0.0001,27.6800
11324953.0000,0.0547,-0.0086,9.7600,-0.0082,0.0011,-0.0001,27.7800
11347954.0000,-0.0353,-0.0686,9.8000,0.0018,0.0011,-0.0001,27.6800
11370954.0000,-0.0153,0.0014,9.8200,-0.0082,0.0011,-0.0001,27.6800
11393954.0000,0.0347,0.0514,9.8300,0.0018,0.0011,-0.0001,27.7300
11416954.0000,0.0347,-0.0086,9.8400,0.0018,-0.0089,-0.0001,27.7300
11439954.0000,-0.0053,0.0114,9.8100,0.0018,0.0011,-0.0001,27.7300
11462954.0000,0.0547,-0.0086,9.7200,0.0018,0.0011,-0.0001,27.7300
11485954.0000,-0.0053,-0.0186,9.7500,0.0018,0.0011,-0.0001,27.6400
11508954.0000,0.0047,-0.0086,9.8000,0.0018,0.0011,-0.0001,27.6400
11531954.0000,-0.0153,0.0614,9.8500,0.0018,0.0011,-0.0001,27.6800
11554953.0000,-0.0353,0.0114,9.7600,-0.0082,0.0011,-0.0001,27.7800
11577953.0000,-0.0453,0.0014,9.8600,0.0018,0.0011,-0.0001,27.7800
11600954.0000,-0.0053,0.0014,9.8300,0.0018,0.0011,-0.0001,27.6400
11623954.0000,0.0347,0.0514,9.7900,0.0018,0.0011,-0.0001,27.7300
11646954.0000,0.0047,0.0214,9.9000,-0.0082,0.0011,-0.0001,27.7300
11669954.0000,-0.0053,-0.0386,9.8700,-0.0082,-0.0089,-0.0001,27.6400
11692954.0000,-0.0153,-0.0586,9.8300,0.0018,0.0011,-0.0001,27.5900
11715954.0000,0.0047,-0.0086,9.8300,-0.0082,0.0011,-0.0001,27.6800
11738954.0000,0.0247,0.0314,9.7700,0.0018,0.0011,-0.0001,27.6800
11761953.0000,0.0247,0.0214,9.7500,0.0018,0.0011,-0.0001,27.7800
11784954.0000,0.0347,0.0014,9.8100,0.0018,0.0011,-0.0001,27.7300
11807954.0000,0.0047,0.0414,9.7900,0.0018,0.0011,-0.0001,27.6400
11830954.0000,-0.0153,0.0214,9.7300,0.0018,0.0011,-0.0001,27.7300
11853954.0000,0.0147,-0.0286,9.7900,0.0018,0.0011,-0.0001,27.8200
11876954.0000,0.0347,0.0314,9.8600,0.0018,0.0011,-0.0001,27.7300
11899953.0000,0.0147,0.0114,9.7900,0.0018,0.0011,-0.0001,27.7800
11922954.0000,0.0047,0.0114,9.7700,0.0018,0.0011,-0.0001,27.6800
11945954.0000,-0.0053,0.0614,9.6200,0.0018,0.0011,-0.0001,27.6800
11968954.0000,-0.0053,-0.0486,9.7700,0.0018,0.0011,-0.0001,27.6800
11991954.0000,-0.0253,0.0014,9.8200,0.0018,0.0011,-0.0001,27.7300
12014954.0000,-0.0053,0.0014,9.7100,0.0018,-0.0089,-0.0001,27.7300
12037954.0000,-0.0253,-0.0586,9.9000,-0.0082,0.0011,-0.0001,27.6400
12060954.0000,0.0047,-0.0086,9.6500,0.0018,0.0011,-0.0001,27.7300
12083954.0000,-0.0353,0.0514,9.8400,0.0018,0.0011,-0.0001,27.6800
12106954.0000,0.0147,0.0314,9.8000,0.0018,0.0011,-0.0001,27.6800
12129953.0000,-0.0453,0.0214,9.8000,0.0018,0.0011,-0.0001,27.7800
12152954.0000,-0.0653,0.0214,9.8800,0.0018,0.0011,-0.0001,27.6800
12175954.0000,0.0347,0.0314,9.8500,0.0018,0.0011,-0.0001,27.6800
12198954.0000,0.0347,0.0214,9.8400,0.0018,0.0011,-0.0001,27.6400
12221954.0000,-0.0653,0.0514,9.7600,0.0018,0.0011,-0.0001,27.8200
12244954.0000,0.0347,0.0214,9.7700,0.0018,0.0011,-0.0001,27.7300
12267954.0000,-0.0153,-0.0186,9.8700,0.0018,0.0011,-0.0001,27.7300
12290954.0000,0.0047,-0.0286,9.8000,0.0018,0.0011,-0.0001,27.6400
12313954.0000,0.0047,0.0214,9.7300,0.0018,0.0011,-0.0001,27.7300
12336954.0000,-0.0053,-0.0086,9.8200,0.0018,0.0011,-0.0001,27.5900
12359954.0000,0.0247,-0.0286,9.8700,-0.0082,0.0011,-0.0001,27.5900
12382953.0000,0.0447,0.0514,9.8200,-0.0082,0.0011,-0.0001,27.7800
12405954.0000,-0.0453,0.0214,9.8400,-0.0082,0.0011,-0.0001,27.7300
12428954.0000,-0.0353,0.0014,9.8800,0.0018,0.0011,-0.0001,27.8200
12451954.0000,-0.0153,0.0014,9.7500,0.0018,0.0011,-0.0001,27.7300
12474954.0000,-0.0053,-0.0086,9.9000,0.0018,0.0011,-0.0001,27.7300
12497953.0000,0.0047,0.0414,9.8000,0.0018,0.0011,-0.0001,27.7800
12520954.0000,0.0147,0.0614,9.8700,0.0018,0.0011,-0.0001,27.5900
12543954.0000,0.0547,0.0014,9.8200,0.0018,0.0011,-0.0001,27.6800
12566954.0000,-0.0353,0.0014,9.8000,0.0018,0.0011,-0.0001,27.6800
12589954.0000,-0.0253,-0.0186,9.8000,0.0018,0.0011,-0.0001,27.7300
12612954.0000,0.0047,-0.0586,9.7000,0.0018,0.0011,-0.0001,27.7300
12635954.0000,-0.0053,0.0114,9.8500,0.0018,0.0011,-0.0001,27.5400
12658954.0000,0.0147,-0.0186,9.8300,-0.0082,0.0011,-0.0001,27.6400
12681954.0000,0.0347,-0.0086,9.7900,0.0018,0.0011,-0.0001,27.8200
12704954.0000,0.0347,0.0214,9.7000,0.0018,0.0011,-0.0001,27.6800
12727953.0000,-0.0553,0.0514,9.8700,0.0018,0.0011,-0.0001,27.7800
12750954.0000,0.0347,0.0014,9.7700,0.0018,0.0011,-0.0001,27.6800
12773953.0000,-0.0753,0.0114,9.8600,0.0018,0.0011,-0.0001,27.7800
12796954.0000,-0.0253,0.0614,9.8500,-0.0082,0.0011,-0.0001,27.7300
12819954.0000,0.0147,0.0114,9.7900,-0.0082,0.0011,-0.0001,27.7300
12842954.0000,0.0047,0.0014,9.7000,-0.0082,0.0011,-0.0001,27.6400
12865954.0000,-0.0253,0.0414,9.7700,0.0018,0.0011,-0.0001,27.7300
12888954.0000,0.0247,-0.0086,9.8200,0.0018,0.0011,-0.0001,27.6800
12911953.0000,-0.0353,-0.0386,9.8000,0.0018,0.0011,-0.0001,27.7800
12934954.0000,-0.0353,0.0014,9.8700,-0.0082,0.0011,-0.0001,27.6800
12957954.0000,-0.0953,0.1114,9.7500,-0.0082,0.0011,-0.0001,27.6800
12980954.0000,0.0047,-0.0086,9.7500,0.0018,-0.0089,-0.0001,27.6800
13003954.0000,-0.0253,-0.0586,9.9000,0.0018,0.0011,-0.0001,27.7300
13026954.0000,0.0147,0.0314,9.8000,0.0018,0.0011,-0.0001,27.6400
13049954.0000,-0.0653,0.0714,9.8700,-0.0082,0.0011,-0.0001,27.7300
13072954.0000,0.0247,-0.0686,9.8100,0.0018,0.0011,-0.0001,27.7300
13095954.0000,-0.0253,0.0014,9.8800,-0.0082,-0.0089,-0.0001,27.6400
13118954.0000,-0.0053,0.0214,9.8500,0.0018,0.0011,-0.0001,27.7300
13141954.0000,0.0147,0.0214,9.7800,0.0018,0.0011,-0.0001,27.6800
13164953.0000,0.0047,0.0114,9.6200,0.0018,0.0011,-0.0001,27.7800
13187954.0000,-0.0053,0.0514,9.8400,0.0018,0.0011,-0.0001,27.7300
13210954.0000,0.0047,0.0714,9.8900,0.0018,0.0011,-0.0001,27.6400
13233954.0000,-0.0153,0.0314,10.0700,0.0018,0.0011,-0.0001,27.7300
13256954.0000,0.0147,-0.0886,9.7300,0.0118,0.0011,-0.0001,27.7300
13279954.0000,-0.0653,-0.0386,9.8700,0.0018,0.0011,-0.0001,27.7300
13302954.0000,0.0047,-0.0486,9.6000,0.0018,-0.0089,-0.0001,27.6800
13325953.0000,0.0947,0.1014,9.9600,0.0018,0.0011,-0.0001,27.7800
13348953.0000,-0.0653,-0.0086,9.8000,0.0018,0.0011,-0.0001,27.7800
13371954.0000,-0.0153,-0.0286,9.6500,0.0018,0.0011,-0.0001,27.6800
13394954.0000,-0.0253,-0.0886,9.9000,0.0018,0.0011,-0.0001,27.7300
13417954.0000,0.0647,0.0914,9.8200,-0.0082,0.0011,-0.0001,27.7300
13440954.0000,-0.0653,0.0014,9.8000,0.0018,-0.0089,-0.0001,27.7300
13463954.0000,0.0047,0.0414,9.7500,0.0018,0.0011,-0.0001,27.6400
13486954.0000,-0.0353,-0.0086,9.8500,0.0018,0.0011,-0.0001,27.6800
13509953.0000,0.0647,0.0014,9.7800,0.0018,0.0011,-0.0001,27.7800
13532954.0000,0.0047,-0.0286,9.8000,0.0018,0.0011,-0.0001,27.6800
13555954.0000,0.0047,-0.0286,9.7800,0.0018,0.0011,-0.0001,27.6800
13578954.0000,-0.0353,0.0014,9.7900,0.0018,0.0011,-0.0001,27.6800
13601954.0000,0.0347,-0.0386,9.8200,-0.0082,0.0011,-0.0001,27.6400
13624954.0000,0.0047,-0.0086,9.8600,-0.0082,0.0011,-0.0001,27.6400
13647954.0000,-0.0553,-0.0086,10.0000,-0.0082,0.0011,-0.0001,27.7300
13670954.0000,0.0347,0.0014,9.7600,-0.0082,0.0011,-0.0001,27.7300
13693953.0000,-0.0253,-0.0786,9.9500,0.0018,0.0011,-0.0001,27.7800
13716953.0000,0.0047,0.0714,9.7600,-0.0082,0.0011,-0.0001,27.7800
13739953.0000,-0.0353,0.0114,10.0500,0.0018,0.0011,-0.0001,27.7800
13762954.0000,0.0647,0.0914,9.8400,-0.0082,-0.0089,-0.0001,27.6800
13785953.0000,0.0547,0.0214,9.7400,0.0018,0.0011,-0.0001,27.7800
13808954.0000,-0.0453,-0.0186,9.6600,-0.0082,0.0011,-0.0001,27.6400
13831954.0000,-0.0153,0.0014,9.9900,0.0018,0.0011,-0.0001,27.7300
13854954.0000,-0.0053,-0.0186,9.8700,-0.0082,0.0011,0.0099,27.7300
13877954.0000,0.0247,0.0314,9.8600,-0.0082,0.0011,-0.0001,27.7300
13900954.0000,-0.0553,0.0214,9.8000,0.0018,0.0011,-0.0001,27.7300
13923953.0000,0.0247,-0.0186,9.8100,0.0018,0.0011,-0.0001,27.7800
13946954.0000,0.0247,-0.0186,9.8600,-0.0082,-0.0089,-0.0001,27.6800
13969954.0000,0.0147,-0.0086,9.8000,-0.0082,0.0011,-0.0001,27.6800
13992954.0000,-0.0053,0.0314,10.0900,-0.0082,-0.0089,-0.0001,27.6400
14015954.0000,-0.0553,-0.0086,9.7600,-0.0082,0.0011,-0.0001,27.7300
14038954.0000,0.0647,0.0614,9.9000,0.0018,-0.0089,-0.0001,27.6400
14061954.0000,-0.0253,-0.0186,9.7000,0.0018,0.0011,-0.0001,27.6400
14084954.0000,-0.0053,0.0314,9.8700,0.0018,0.0011,-0.0001,27.8200
14107954.0000,-0.0853,-0.0886,9.8900,-0.0082,0.0011,-0.0001,27.6800
14130954.0000,-0.0253,0.0414,9.8700,0.0018,-0.0089,-0.0001,27.5900
14153953.0000,-0.0353,-0.0086,9.8500,0.0018,-0.0089,-0.0001,27.7800
14176954.0000,0.0047,0.0414,9.7300,0.0018,0.0011,-0.0001,27.6800
14199954.0000,0.0247,0.0514,9.8400,0.0018,0.0011,-0.0001,27.7300
14222954.0000,0.0147,-0.0186,9.7500,0.0018,0.0011,-0.0001,27.7300
14245954.0000,-0.0053,-0.0486,9.9000,0.0018,0.0011,-0.0001,27.8200
14268954.0000,0.0347,-0.0186,9.7700,0.0018,0.0011,-0.0001,27.7300
14291953.0000,0.0247,0.0314,9.8000,0.0018,0.0011,-0.0001,27.7800
14314954.0000,-0.0153,0.0014,9.8200,0.0018,0.0011,-0.0001,27.6800
14337954.0000,-0.0453,-0.0386,9.7600,0.0018,0.0011,-0.0001,27.6800
14360954.0000,-0.0353,-0.0386,9.8900,0.0018,0.0011,-0.0001,27.6800
14383954.0000,-0.0153,-0.0286,9.7400,0.0018,0.0011,-0.0001,27.6800
14406954.0000,0.0347,-0.0386,9.9200,0.0018,0.0011,-0.0001,27.7300
14429954.0000,0.0047,0.0314,9.7800,0.0018,0.0011,-0.0001,27.7300
14452954.0000,0.0647,0.0114,9.8000,0.0018,-0.0089,-0.0001,27.7300
14475954.0000,-0.0453,-0.0086,9.8200,0.0018,0.0011,-0.0001,27.7300
14498954.0000,-0.0053,0.0714,9.7300,0.0018,0.0011,-0.0001,27.5900
14521954.0000,-0.0553,-0.0286,9.8200,0.0018,0.0011,-0.0001,27.6800
14544954.0000,0.0447,-0.0086,9.8900,0.0018,0.0011,-0.0001,27.5900
14567953.0000,-0.0153,-0.0286,9.7700,0.0018,0.0011,-0.0001,27.7800
14590954.0000,-0.0053,0.0114,9.8300,0.0018,0.0011,-0.0001,27.7300
14613954.0000,-0.0253,-0.0286,9.8200,0.0018,0.0011,-0.0001,27.7300
14636954.0000,-0.0253,0.0214,9.8700,-0.0082,0.0011,-0.0001,27.6400
14659954.0000,-0.0153,-0.0486,9.8100,-0.0082,0.0011,-0.0001,27.6400
14682954.0000,0.0347,-0.0086,9.7900,0.0018,0.0011,-0.0001,27.8200
14705954.0000,0.0147,-0.0286,9.7700,0.0018,0.0011,-0.0001,27.7300
14728954.0000,0.0147,-0.0386,9.8800,0.0018,0.0011,-0.0001,27.6800
14751954.0000,-0.0353,0.0114,9.7300,-0.0082,0.0011,-0.0001,27.6800
14774954.0000,0.0547,-0.0286,9.8400,0.0018,0.0011,-0.0001,27.6800
14797954.0000,0.0147,0.0114,9.8900,0.0018,0.0011,-0.0001,27.7300
14820954.0000,-0.0253,-0.0186,9.7600,0.0018,0.0011,-0.0001,27.7300
14843954.0000,0.0447,0.0314,9.8400,0.0018,-0.0089,-0.0001,27.7300
14866954.0000,0.0147,-0.0386,9.7500,-0.0082,0.0011,-0.0001,27.6400
14889953.0000,-0.0453,-0.0286,9.7600,0.0018,0.0011,-0.0001,27.7800
14912953.0000,-0.0453,-0.0086,9.7900,0.0018,-0.0089,-0.0001,27.7800
14935953.0000,0.0447,-0.0386,9.8400,0.0018,0.0011,-0.0001,27.7800
14958954.0000,0.0047,0.0014,9.8500,0.0018,-0.0089,-0.0001,27.6800
14981953.0000,0.0447,0.0214,9.8100,0.0018,0.0011,-0.0001,27.7800
15004954.0000,0.0047,0.0414,9.8600,0.0018,0.0011,-0.0001,27.7300
15027954.0000,-0.0453,-0.0086,9.7600,0.0018,0.0011,-0.0001,27.6400
15050954.0000,0.0247,-0.0286,9.7800,0.0018,0.0011,-0.0001,27.7300
15073954.0000,0.0147,0.0414,9.7100,0.0018,0.0011,-0.0001,27.7300
15096954.0000,-0.0053,-0.0286,9.7600,0.0018,0.0011,-0.0001,27.6800
15119954.0000,-0.0053,0.0414,9.6900,0.0018,-0.0089,-0.0001,27.6800
15142954.0000,0.0447,0.0114,9.8600,0.0018,0.0011,-0.0001,27.6800
15165954.0000,0.0147,-0.0186,9.8400,0.0018,0.0011,-0.0001,27.6800
15188954.0000,-0.0453,-0.0086,9.8700,0.0018,0.0011,-0.0001,27.6800
15211954.0000,-0.0953,-0.0086,9.7800,0.0018,0.0011,-0.0001,27.7300
15234954.0000,0.0047,0.0514,9.7900,0.0018,0.0011,-0.0001,27.7300
15257954.0000,0.0347,0.0214,9.8000,0.0018,0.0011,-0.0001,27.7300
15280954.0000,0.0347,-0.0086,9.8500,0.0018,0.0011,-0.0001,27.7300
15303953.0000,-0.0253,0.0314,9.8100,0.0018,0.0011,-0.0001,27.7800
15326954.0000,-0.0553,-0.0286,9.9200,-0.0082,0.0011,-0.0001,27.5900
15349953.0000,-0.0353,-0.0586,9.8100,0.0018,0.0011,-0.0001,27.7800
15372953.0000,0.0347,0.0714,9.8400,0.0018,0.0011,-0.0001,27.7800
15395954.0000,0.0247,0.0014,9.8000,0.0018,0.0011,-0.0001,27.6400
15418954.0000,-0.0553,0.0614,9.7500,0.0018,0.0011,-0.0001,27.7300
15441954.0000,-0.0553,-0.0086,9.7400,0.0018,0.0011,-0.0001,27.6400
15464954.0000,0.0447,-0.0486,9.8200,0.0018,0.0011,-0.0001,27.7300
15487954.0000,-0.0153,0.0214,9.7700,-0.0082,0.0011,-0.0001,27.6400
15510954.0000,-0.0353,-0.0186,9.7700,0.0018,0.0011,-0.0001,27.6400
15533954.0000,0.0047,0.0314,9.8400,0.0018,0.0011,-0.0001,27.6800
15556954.0000,0.0147,-0.0086,9.8100,0.0018,-0.0089,-0.0001,27.6800
15579954.0000,-0.0153,0.0314,9.7900,0.0018,0.0011,-0.0001,27.6800
15602954.0000,0.0747,0.0114,9.7900,0.0018,0.0011,-0.0001,27.7300
15625954.0000,0.0147,0.0014,9.7700,0.0018,0.0011,-0.0001,27.7300
15648954.0000,-0.0253,0.0514,9.8100,0.0018,0.0011,-0.0001,27.7300
15671954.0000,-0.0153,-0.0886,9.7900,0.0018,0.0011,-0.0001,27.6400
15694953.0000,-0.0153,-0.1086,9.7200,0.0018,0.0011,-0.0001,27.7800
15717953.0000,0.0647,0.0014,9.7100,-0.0082,-0.0089,-0.0001,27.7800
15740954.0000,-0.0453,0.0614,9.7400,-0.0082,0.0011,-0.0001,27.6800
15763954.0000,0.0447,0.0314,9.8800,0.0018,0.0011,-0.0001,27.6800
15786954.0000,0.0047,-0.0086,9.8400,-0.0082,0.0011,-0.0001,27.6800
15809954.0000,-0.0453,0.0314,9.8100,0.0018,0.0011,-0.0001,27.7300
15832954.0000,0.0447,0.0414,9.7700,0.0018,0.0011,-0.0001,27.6400
15855954.0000,-0.0253,-0.0386,9.8900,0.0018,0.0011,-0.0001,27.6400
15878954.0000,0.0247,-0.0086,9.9000,-0.0082,0.0011,-0.0001,27.7300
15901954.0000,-0.0253,-0.0386,9.7500,0.0018,0.0011,-0.0001,27.6800
15924954.0000,-0.0353,-0.0186,9.8700,-0.0082,0.0011,-0.0001,27.6800
15947954.0000,0.0047,-0.0586,9.8100,0.0018,0.0011,-0.0001,27.6800
15970954.0000,-0.0353,0.0114,9.8800,0.0018,0.0011,-0.0001,27.6800
15993954.0000,0.0447,-0.0286,9.8800,0.0018,0.0011,-0.0001,27.7300
16016954.0000,-0.0053,0.0414,9.8100,0.0018,0.0011,-0.0001,27.7300
16039954.0000,-0.0153,-0.0086,9.9300,0.0018,0.0011,-0.0001,27.7300
16062954.0000,0.0347,0.0214,9.8400,0.0018,0.0011,-0.0001,27.6400
16085954.0000,0.0047,-0.0086,9.8500,0.0018,-0.0089,-0.0001,27.7300
16108953.0000,-0.0453,0.0014,9.7100,0.0018,0.0011,-0.0001,27.7800
16131953.0000,0.0147,0.0014,9.7900,0.0018,0.0011,-0.0001,27.7800
16154953.0000,0.0147,-0.0086,9.8000,0.0018,0.0011,-0.0001,27.7800
16177953.0000,0.0247,0.0714,9.7900,0.0018,0.0011,-0.0001,27.7800
16200954.0000,0.0047,-0.0086,9.8300,0.0018,0.0011,-0.0001,27.7300
16223954.0000,0.0147,-0.0286,9.7400,0.0018,0.0011,-0.0001,27.7300
16246954.0000,-0.0553,-0.0086,9.7100,0.0018,0.0011,-0.0001,27.8200
16269954.0000,0.0647,-0.0086,9.7900,0.0018,0.0011,-0.0001,27.7300
16292954.0000,-0.0053,-0.0286,9.8600,0.0018,0.0011,-0.0001,27.7300
16315954.0000,0.0047,0.0314,9.8500,0.0018,0.0011,-0.0001,27.7300
16338953.0000,0.0147,0.0114,9.8100,0.0018,0.0011,-0.0001,27.7800
16361954.0000,-0.0153,0.0514,9.8300,0.0018,0.0011,-0.0001,27.6800
16384954.0000,0.0047,0.0014,9.7800,0.0018,0.0011,-0.0001,27.6800
16407954.0000,0.0247,-0.0286,9.8500,0.0018,0.0011,-0.0001,27.7300
16430954.0000,0.0547,-0.0486,9.8300,0.0018,0.0011,-0.0001,27.6400
16453954.0000,-0.0053,-0.0386,9.8400,0.0018,0.0011,-0.0001,27.7300
16476954.0000,-0.0053,-0.0086,9.7200,0.0018,0.0011,-0.0001,27.7300
16499954.0000,-0.0353,0.0214,9.7300,0.0018,0.0011,-0.0001,27.6800
16522954.0000,0.0647,-0.0386,9.8500,0.0018,0.0011,-0.0001,27.5900
16545953.0000,0.0547,0.0114,9.8000,-0.0082,0.0011,-0.0001,27.7800
16568954.0000,0.0147,0.0514,9.8500,0.0018,0.0011,-0.0001,27.6800
16591954.0000,0.0247,-0.0786,9.8100,0.0018,0.0011,-0.0001,27.6800
16614954.0000,-0.0453,-0.0586,9.8300,0.0018,0.0011,-0.0001,27.6400
16637954.0000,0.0147,-0.0086,9.7500,0.0018,0.0011,-0.0001,27.6400
16660954.0000,-0.0453,-0.0086,9.8000,0.0018,0.0011,-0.0001,27.6400
16683954.0000,0.0347,0.0314,9.7900,0.0018,0.0011,-0.0001,27.7300
16706954.0000,-0.0353,-0.0186,9.7300,0.0018,0.0011,-0.0001,27.6800
16729954.0000,0.0147,-0.0586,9.9300,0.0018,0.0011,-0.0001,27.6800
16752953.0000,0.0547,-0.0186,9.8300,-0.0082,0.0011,-0.0001,27.7800
16775954.0000,-0.0753,0.0514,9.8200,0.0018,-0.0089,-0.0001,27.6800
16798954.0000,-0.0153,-0.0186,9.7800,0.0018,0.0011,-0.0001,27.7300
16821954.0000,0.0147,0.0314,9.7600,0.0018,0.0011,-0.0001,27.7300
16844954.0000,0.0147,-0.0086,9.8600,0.0018,0.0011,-0.0001,27.6400
16867954.0000,-0.0353,-0.0286,9.6900,0.0018,0.0011,-0.0001,27.7300
16890954.0000,-0.0253,-0.0186,9.8300,0.0018,0.0011,-0.0001,27.6400
16913953.0000,0.0047,-0.0086,9.8300,0.0018,0.0011,-0.0001,27.7800
16936954.0000,-0.0053,0.0214,9.7200,0.0018,-0.0089,-0.0001,27.6800
16959954.0000,-0.0453,0.0414,9.7600,-0.0082,-0.0089,-0.0001,27.6800
16982954.0000,0.0047,0.0114,9.8200,-0.0082,0.0011,-0.0001,27.6800
17005954.0000,-0.0153,-0.0386,9.7300,0.0018,0.0011,-0.0001,27.7300
17028954.0000,-0.0353,-0.0386,9.8300,0.0018,0.0011,-0.0001,27.7300
17051954.0000,-0.0553,-0.0486,9.7400,0.0018,0.0011,-0.0001,27.7300
17074954.0000,0.0147,0.0314,9.7700,0.0018,0.0011,-0.0001,27.7300
17097954.0000,0.0147,-0.0086,9.8300,0.0018,0.0011,-0.0001,27.6400
17120954.0000,0.0047,-0.0186,9.8100,0.0018,0.0011,-0.0001,27.7300
17143954.0000,0.0347,0.0514,9.9400,-0.0082,0.0011,-0.0001,27.6800
17166954.0000,0.0347,0.0314,9.9200,0.0018,0.0011,-0.0001,27.6800
17189953.0000,-0.0453,0.0214,9.8100,0.0018,0.0011,-0.0001,27.7800
17212954.0000,0.0447,-0.0186,9.7400,-0.0082,0.0011,-0.0001,27.7300
17235954.0000,0.0847,-0.0286,9.8200,-0.0082,0.0011,-0.0001,27.7300
17258954.0000,-0.0053,-0.0186,9.8400,0.0018,0.0011,-0.0001,27.7300
17281954.0000,0.0247,0.0114,9.8300,-0.0082,0.0011,-0.0001,27.7300
17304953.0000,0.0147,0.0414,9.7900,0.0018,0.0011,-0.0001,27.7800
17327953.0000,-0.0353,0.0014,9.8200,0.0018,0.0011,-0.0001,27.7800
17350954.0000,-0.0353,-0.0286,9.8100,0.0018,0.0011,-0.0001,27.5900
17373953.0000,0.0047,0.0014,9.8000,0.0018,0.0011,-0.0001,27.7800
17396954.0000,0.0447,0.0314,9.7800,0.0018,0.0011,-0.0001,27.6400
17419954.0000,-0.0253,0.0314,9.7400,0.0018,0.0011,-0.0001,27.6400
17442954.0000,-0.0553,0.0014,9.7500,-0.0082,0.0011,-0.0001,27.7300
17465954.0000,0.0047,0.0214,9.8100,0.0018,0.0011,-0.0001,27.6400
17488954.0000,-0.0253,0.0214,9.7700,0.0018,0.0011,-0.0001,27.6400
17511954.0000,-0.0153,0.0614,9.8100,0.0018,0.0011,-0.0001,27.6800
17534953.0000,0.0447,-0.0186,9.8200,-0.0082,0.0011,-0.0001,27.7800
17557954.0000,0.0247,-0.0286,9.7400,0.0018,-0.0089,-0.0001,27.6800
17580954.0000,0.0147,0.0014,9.8700,-0.0082,-0.0089,-0.0001,27.5900
17603954.0000,-0.0453,0.0414,9.7300,0.0018,0.0011,-0.0001,27.6400
17626954.0000,0.0147,0.0214,9.8400,0.0018,0.0011,-0.0001,27.7300
17649954.0000,0.0647,0.0514,9.8400,0.0018,0.0011,-0.0001,27.6400
17672954.0000,0.0547,0.0014,9.7700,0.0018,0.0011,-0.0001,27.7300
17695954.0000,0.0147,-0.0086,9.7600,0.0018,0.0011,-0.0001,27.6400
17718953.0000,0.0347,0.0114,9.7700,0.0018,0.0011,-0.0001,27.7800
17741954.0000,-0.0053,-0.0286,9.7800,0.0018,0.0011,-0.0001,27.6800
17764953.0000,0.0747,0.0014,9.8100,0.0018,0.0011,-0.0001,27.7800
17787954.0000,-0.0153,-0.0586,9.8300,0.0018,0.0011,-0.0001,27.6800
17810954.0000,-0.0053,0.0114,9.8800,0.0018,-0.0089,-0.0001,27.7300
17833954.0000,0.0447,0.0714,9.8600,0.0018,-0.0089,-0.0001,27.7300
17856954.0000,-0.0953,-0.0186,9.8800,0.0018,0.0011,-0.0001,27.6400
17879954.0000,0.0447,-0.0286,9.8100,0.0018,-0.0089,-0.0001,27.6400
17902954.0000,-0.0853,-0.0386,9.8300,0.0018,0.0011,-0.0001,27.6400
17925954.0000,-0.0353,0.0314,9.7900,0.0018,0.0011,-0.0001,27.7300
17948954.0000,0.0147,-0.0086,9.8300,0.0018,0.0011,-0.0001,27.6800
17971954.0000,0.0347,0.0214,9.9500,0.0018,0.0011,-0.0001,27.6800
17994954.0000,0.0047,0.0514,9.6500,0.0018,0.0011,-0.0001,27.6800
18017954.0000,0.0147,0.0014,9.8000,0.0018,0.0011,-0.0001,27.6400
18040954.0000,-0.0153,-0.0086,9.7100,0.0018,0.0011,-0.0001,27.6400
18063954.0000,0.0547,-0.0186,9.8700,0.0018,-0.0089,-0.0001,27.7300
18086954.0000,-0.0053,0.0214,9.8000,-0.0082,0.0011,-0.0001,27.7300
18109953.0000,0.0047,-0.0286,9.8100,0.0018,0.0011,-0.0001,27.7800
18132954.0000,0.0147,-0.0486,9.7900,0.0018,0.0011,-0.0001,27.6800
18155954.0000,-0.0053,-0.0286,9.8500,0.0018,-0.0089,-0.0001,27.5900
18178953.0000,-0.0053,0.0214,9.8000,0.0018,0.0011,-0.0001,27.7800
18201954.0000,-0.0053,-0.0086,9.7200,0.0018,0.0011,-0.0001,27.7300
18224954.0000,-0.0453,0.0414,9.7800,0.0018,0.0011,-0.0001,27.7300
18247954.0000,0.0347,0.0014,9.8100,-0.0082,-0.0089,-0.0001,27.6400
18270954.0000,0.1347,-0.0086,9.7700,0.0018,0.0011,-0.0001,27.6400
18293954.0000,0.0147,0.0414,9.8300,0.0018,0.0011,-0.0001,27.7300
18316954.0000,-0.0053,0.0314,9.7000,0.0018,0.0011,-0.0001,27.6800
18339954.0000,-0.0253,-0.0086,9.7500,0.0018,0.0011,-0.0001,27.6800
18362954.0000,0.0347,0.0214,9.6900,-0.0082,-0.0089,-0.0001,27.5900
18385954.0000,0.0247,-0.0186,9.7800,0.0018,0.0011,-0.0001,27.6800
18408954.0000,-0.0553,-0.0386,9.9200,0.0018,-0.0089,-0.0001,27.6400
18431954.0000,-0.0253,-0.0086,9.7600,0.0018,0.0011,-0.0001,27.6400
18454954.0000,-0.0253,-0.0386,9.8600,-0.0082,0.0011,-0.0001,27.7300
18477954.0000,0.0047,0.0014,9.7800,0.0018,0.0011,-0.0001,27.7300
18500954.0000,-0.0653,-0.0086,9.7100,-0.0082,0.0011,-0.0001,27.6800
18523954.0000,0.0147,-0.0086,9.8600,-0.0082,0.0011,-0.0001,27.6800
18546953.0000,0.0247,0.0114,9.8300,0.0018,0.0011,-0.0001,27.7800
18569954.0000,-0.0553,0.0114,9.7900,0.0018,0.0011,-0.0001,27.6800
18592954.0000,-0.0253,0.0514,9.8300,0.0018,0.0011,-0.0001,27.6800
18615954.0000,0.0247,0.0114,9.7600,0.0018,0.0011,-0.0001,27.7300
18638954.0000,-0.0253,-0.0586,9.7800,0.0018,0.0011,-0.0001,27.6400
18661954.0000,-0.0153,0.0014,9.7900,0.0018,-0.0089,-0.0001,27.7300
18684954.0000,-0.0253,0.0314,9.8900,0.0018,0.0011,-0.0001,27.7300
18707954.0000,0.0447,-0.0686,9.9100,0.0018,0.0011,-0.0001,27.6400
18730954.0000,-0.0153,-0.0286,9.7600,0.0018,0.0011,-0.0001,27.7300
18753953.0000,-0.0053,-0.0286,9.7100,0.0018,0.0011,-0.0001,27.7800
18776954.0000,0.0447,-0.0086,9.7900,0.0018,0.0011,-0.0001,27.6800
18799954.0000,0.0047,0.0614,9.8200,-0.0082,0.0011,-0.0001,27.7300
18822954.0000,-0.0253,0.0514,9.8600,0.0018,0.0011,-0.0001,27.7300
18845954.0000,-0.0453,-0.0286,9.8200,0.0018,0.0011,-0.0001,27.6400
18868954.0000,-0.0353,-0.0186,9.7600,0.0018,0.0011,-0.0001,27.6400
18891954.0000,-0.0253,0.0214,9.8400,0.0018,0.0011,-0.0001,27.6400
18914953.0000,0.0347,-0.0186,9.8200,0.0018,0.0011,-0.0001,27.7800
18937954.0000,-0.0153,0.0114,9.8600,0.0018,0.0011,-0.0001,27.6800
18960953.0000,0.0247,-0.0086,9.9000,0.0018,0.0011,-0.0001,27.7800
18983953.0000,0.0047,0.0514,9.7900,0.0018,0.0011,-0.0001,27.7800
19006954.0000,0.0147,0.0414,9.8500,0.0018,0.0011,-0.0001,27.7300
19029954.0000,0.0447,0.1014,9.7800,-0.0082,0.0011,-0.0001,27.7300
19052954.0000,0.0147,-0.0786,9.7600,0.0018,0.0011,-0.0001,27.7300
19075954.0000,0.0047,0.0114,9.8000,-0.0082,0.0011,-0.0001,27.7300
19098954.0000,0.0447,0.0314,9.8000,0.0018,0.0011,-0.0001,27.7300
19121954.0000,-0.0353,0.0014,9.9200,0.0018,0.0011,-0.0001,27.6800
19144953.0000,-0.0053,-0.0386,9.8900,0.0018,0.0011,-0.0001,27.7800
19167954.0000,-0.0253,-0.0286,9.8000,-0.0082,0.0011,-0.0001,27.6800
19190954.0000,0.0047,0.0214,9.7600,0.0018,0.0011,-0.0001,27.6800
19213954.0000,0.0147,0.0514,9.7600,-0.0082,0.0011,-0.0001,27.7300
19236954.0000,0.0647,0.0214,9.8600,0.0018,0.0011,-0.0001,27.7300
19259954.0000,0.0247,-0.0186,9.8000,0.0018,0.0011,-0.0001,27.7300
19282954.0000,0.0547,0.0414,9.7300,0.0018,0.0011,-0.0001,27.7300
19305954.0000,-0.0753,0.0314,9.7400,0.0018,0.0011,-0.0001,27.6800
19328954.0000,-0.0253,-0.0186,9.7600,0.0018,0.0011,-0.0001,27.6800
19351954.0000,0.0047,-0.0186,9.8800,0.0018,0.0011,-0.0001,27.5900
19374954.0000,-0.0453,0.0414,9.8400,-0.0082,0.0011,-0.0001,27.6800
19397954.0000,-0.0453,-0.0086,9.8000,0.0018,0.0011,-0.0001,27.6800
19420954.0000,-0.0353,0.0014,9.7400,0.0018,0.0011,-0.0001,27.7300
19443954.0000,0.0147,0.0314,9.7800,0.0018,0.0011,-0.0001,27.7300
19466954.0000,-0.0253,0.0514,9.8200,0.0018,0.0011,0.0099,27.6400
19489954.0000,-0.0353,-0.0086,9.8100,0.0018,0.0011,-0.0001,27.7300
19512954.0000,-0.0053,0.0014,9.7600,0.0018,0.0011,-0.0001,27.7300
19535954.0000,-0.0053,-0.0386,9.8600,0.0018,0.0011,-0.0001,27.6400
19558954.0000,-0.0453,-0.0086,9.7900,0.0018,0.0011,-0.0001,27.6800
19581954.0000,0.0047,0.0314,9.8400,0.0018,0.0011,-0.0001,27.6800
19604954.0000,-0.0053,-0.0286,9.8200,0.0018,0.0011,-0.0001,27.6400
19627954.0000,-0.0053,-0.0286,9.8000,0.0018,0.0011,-0.0001,27.6400
19650954.0000,0.0147,0.0014,9.8700,0.0018,0.0011,-0.0001,27.7300
19673954.0000,-0.0453,-0.0386,9.7100,0.0018,0.0011,-0.0001,27.7300
19696954.0000,-0.0053,0.0414,9.8100,0.0018,0.0011,-0.0001,27.6400
19719953.0000,-0.0453,0.0514,9.8800,0.0018,0.0011,-0.0001,27.7800
19742954.0000,0.0447,-0.0186,9.9500,-0.0082,0.0011,-0.0001,27.6800
19765954.0000,0.0547,0.0714,9.6700,0.0018,0.0011,-0.0001,27.6800
19788954.0000,0.0447,-0.0086,9.8500,0.0018,-0.0089,-0.0001,27.6800
19811954.0000,0.0147,-0.0286,9.7300,0.0018,0.0011,-0.0001,27.7300
19834954.0000,0.0247,-0.0186,9.8000,0.0018,0.0011,-0.0001,27.7300
19857954.0000,0.0347,0.0314,9.8600,0.0018,0.0011,-0.0001,27.7300
19880954.0000,-0.0453,0.0214,9.8800,0.0018,0.0011,-0.0001,27.7300
19903954.0000,-0.0153,0.0514,9.7400,0.0018,0.0011,-0.0001,27.6800
19926954.0000,0.0247,0.0014,9.7900,0.0018,0.0011,-0.0001,27.6800
19949954.0000,-0.0653,-0.0386,9.8000,0.0018,0.0011,-0.0001,27.6800
19972954.0000,-0.0453,-0.0486,9.7200,0.0018,0.0011,-0.0001,27.6800
19995954.0000,-0.0053,0.0114,9.9000,0.0018,0.0011,-0.0001,27.6800
20018954.0000,-0.0153,0.0214,9.8600,-0.0082,-0.0089,-0.0001,27.6400
20041954.0000,0.0247,0.0414,9.7600,0.0018,0.0011,-0.0001,27.6400
20064954.0000,-0.0253,0.0114,9.8700,0.0018,-0.0089,-0.0001,27.7300
20087954.0000,0.0047,0.0014,9.6800,0.0018,0.0011,-0.0001,27.6400
20110954.0000,0.0447,-0.0286,9.7100,0.0018,0.0011,-0.0001,27.8700
20133953.0000,-0.0053,0.0514,9.8400,0.0018,-0.0089,-0.0001,27.7800
20156954.0000,0.0247,0.0114,9.9000,0.0018,0.0011,-0.0001,27.6800
20179954.0000,-0.0053,0.0314,9.7900,0.0018,0.0011,-0.0001,27.6800
20202954.0000,0.0447,0.0514,9.7500,0.0018,0.0011,-0.0001,27.6400
20225954.0000,0.0347,-0.0186,9.7200,0.0018,0.0011,-0.0001,27.6400
20248954.0000,0.0147,0.0414,9.8800,0.0018,0.0011,-0.0001,27.7300
20271954.0000,-0.0453,0.0114,9.8000,-0.0082,0.0011,-0.0001,27.7300
20294954.0000,0.0647,0.0114,9.7600,0.0018,0.0011,-0.0001,27.6400
20317954.0000,0.0147,-0.0186,9.8300,0.0018,0.0011,-0.0001,27.7300
20340954.0000,0.0047,0.0414,9.7600,0.0018,0.0011,-0.0001,27.6800
20363954.0000,-0.0053,0.0014,9.7500,0.0018,0.0011,-0.0001,27.6800
20386954.0000,0.0147,0.0214,9.8500,0.0018,0.0011,-0.0001,27.6800
20409954.0000,-0.0453,0.0014,9.8500,0.0018,0.0011,-0.0001,27.7300
20432954.0000,-0.0253,0.0414,9.8500,0.0018,0.0011,-0.0001,27.6400
20455954.0000,-0.0953,-0.0386,9.8200,0.0018,0.0011,-0.0001,27.7300
20478954.0000,-0.1053,-0.0286,9.8800,0.0018,0.0011,-0.0001,27.6400
20501954.0000,-0.0253,0.0314,9.7700,-0.0082,0.0011,-0.0001,27.7300
20524954.0000,0.0447,-0.0486,9.8100,0.0018,0.0011,-0.0001,27.6800
20547954.0000,0.0747,0.0514,9.7400,0.0018,0.0011,-0.0001,27.6800
20570954.0000,-0.0153,-0.0186,9.7800,0.0018,0.0011,0.0099,27.6800
20593954.0000,-0.0353,-0.0186,9.8000,0.0018,0.0011,-0.0001,27.8700
20616954.0000,0.0047,-0.0186,9.8600,0.0018,0.0011,-0.0001,27.7300
20639954.0000,0.0147,0.0314,9.8100,0.0018,0.0011,-0.0001,27.7300
20662954.0000,0.0047,-0.0186,9.8400,0.0018,-0.0089,-0.0001,27.6400
20685954.0000,-0.0253,-0.0386,9.7800,0.0018,0.0011,-0.0001,27.7300
20708954.0000,0.0447,0.0014,9.7400,0.0018,0.0011,-0.0001,27.6800
20731953.0000,0.0247,-0.0386,9.8100,0.0018,0.0011,-0.0001,27.7800
20754954.0000,0.0047,0.0014,9.8100,0.0018,0.0011,-0.0001,27.6800
20777953.0000,0.0047,0.0314,9.7800,0.0018,0.0011,-0.0001,27.7800
20800953.0000,0.0247,0.0014,9.8300,0.0018,0.0011,-0.0001,27.7800
20823954.0000,0.0347,0.0014,9.9100,-0.0082,0.0011,-0.0001,27.7300
20846954.0000,-0.0153,0.0014,9.7900,0.0018,-0.0089,-0.0001,27.7300
20869954.0000,0.0347,0.0014,9.7600,0.0018,0.0011,-0.0001,27.6400
20892954.0000,-0.0153,0.0114,9.8500,0.0018,0.0011,-0.0001,27.7300
20915953.0000,-0.0253,0.0114,9.7300,0.0018,0.0011,-0.0001,27.7800
20938954.0000,0.0047,-0.0386,9.8300,0.0018,0.0011,-0.0001,27.5900
20961954.0000,-0.0153,0.0014,9.8300,-0.0082,0.0011,-0.0001,27.6800
20984953.0000,0.0447,-0.0086,9.8000,-0.0082,0.0011,-0.0001,27.7800
21007954.0000,0.0047,-0.0186,9.7500,-0.0082,0.0011,-0.0001,27.7300
21030954.0000,-0.0053,0.0814,9.7900,0.0018,0.0011,-0.0001,27.7300
21053954.0000,0.0047,-0.0186,9.8700,0.0018,0.0011,-0.0001,27.7300
21076954.0000,0.0147,-0.0086,9.8500,0.0018,0.0011,-0.0001,27.6400
21099954.0000,-0.0153,0.0314,9.8400,0.0018,0.0011,-0.0001,27.6400
21122954.0000,-0.0053,-0.0486,9.8700,0.0018,0.0011,-0.0001,27.7300
21145954.0000,-0.0153,-0.0286,9.7500,0.0018,0.0011,-0.0001,27.6800
21168954.0000,0.0647,-0.0486,9.8600,0.0018,0.0011,-0.0001,27.6800
21191954.0000,0.0647,0.0214,9.8500,-0.0082,0.0011,-0.0001,27.6800
21214954.0000,0.0247,0.0314,9.8700,0.0018,0.0011,-0.0001,27.7300
21237954.0000,0.0247,-0.0586,9.7300,0.0018,0.0011,-0.0001,27.7300
21260954.0000,0.0447,-0.0086,9.7300,-0.0082,0.0011,-0.0001,27.7300
21283954.0000,-0.0053,0.0214,9.8300,0.0018,0.0011,-0.0001,27.6400
21306954.0000,0.0147,-0.0086,9.8000,0.0018,0.0011,-0.0001,27.6800
21329954.0000,-0.0153,0.0414,9.7600,0.0018,0.0011,-0.0001,27.6800
21352953.0000,-0.0053,0.0514,9.8300,-0.0082,0.0011,-0.0001,27.7800
21375953.0000,-0.0453,-0.0286,9.7800,0.0018,0.0011,-0.0001,27.7800
21398953.0000,0.0047,0.0114,9.7200,0.0018,0.0011,-0.0001,27.7800
21421954.0000,0.0147,-0.0286,9.8100,0.0018,0.0011,-0.0001,27.6400
21444954.0000,-0.0053,0.0414,9.8200,-0.0082,0.0011,-0.0001,27.7300
21467954.0000,-0.0053,-0.0886,9.7800,0.0018,-0.0089,-0.0001,27.7300
21490954.0000,-0.0253,0.0214,9.8600,0.0018,0.0011,-0.0001,27.7300
21513954.0000,0.0347,-0.0186,9.8900,0.0018,0.0011,-0.0001,27.6800
21536954.0000,0.0047,-0.0486,9.9200,0.0018,-0.0089,-0.0001,27.6800
21559953.0000,0.0147,0.0214,9.7900,0.0018,0.0011,-0.0001,27.7800
21582954.0000,0.0047,-0.0086,9.7900,0.0018,0.0011,-0.0001,27.6800
21605954.0000,-0.0253,0.0314,9.8700,0.0018,0.0011,-0.0001,27.6400
21628954.0000,-0.0053,0.0714,9.8400,0.0018,0.0011,-0.0001,27.8200
21651954.0000,0.0147,0.0014,9.7800,0.0018,0.0011,-0.0001,27.7300
21674954.0000,0.0347,-0.0286,9.9400,-0.0082,0.0011,-0.0001,27.7300
21697954.0000,0.0547,-0.0086,9.9000,0.0018,0.0011,-0.0001,27.8200
21720954.0000,-0.0453,0.0014,9.8200,0.0018,0.0011,-0.0001,27.6800
21743954.0000,-0.0053,-0.0386,9.8200,0.0018,0.0011,-0.0001,27.6800
21766953.0000,0.0447,-0.0186,9.8400,0.0018,0.0011,-0.0001,27.7800
21789954.0000,-0.0153,0.0114,9.8400,-0.0082,0.0011,-0.0001,27.6800
21812954.0000,0.0147,-0.0386,9.7600,0.0018,0.0011,-0.0001,27.7300
21835954.0000,-0.0053,-0.0286,9.8200,0.0018,0.0011,-0.0001,27.7300
21858954.0000,0.0047,-0.0186,9.7900,0.0018,0.0011,-0.0001,27.7300
21881954.0000,0.0047,-0.0186,9.7200,0.0018,0.0011,-0.0001,27.6400
21904954.0000,0.0147,0.0514,9.8300,0.0018,0.0011,-0.0001,27.6400
21927954.0000,0.0147,0.0514,9.6600,0.0018,0.0011,-0.0001,27.7300
21950954.0000,-0.0053,-0.0086,9.8100,0.0018,0.0011,-0.0001,27.6800
21973953.0000,-0.0053,-0.0486,9.8600,0.0018,0.0011,-0.0001,27.7800
21996953.0000,-0.0053,-0.0686,9.8300,0.0018,0.0011,-0.0001,27.7800
22019954.0000,-0.0053,-0.0186,9.7400,0.0018,0.0011,-0.0001,27.7300
22042954.0000,0.0347,0.0114,9.8300,0.0018,0.0011,-0.0001,27.6400
22065954.0000,0.0347,-0.0786,9.8100,0.0018,0.0011,-0.0001,27.7300
22088954.0000,0.0347,0.0414,9.8500,0.0018,-0.0089,-0.0001,27.7300
22111953.0000,-0.0553,0.0514,9.7900,0.0018,0.0011,-0.0001,27.7800
22134954.0000,0.0247,-0.0086,9.7500,0.0018,0.0011,-0.0001,27.6800
22157953.0000,-0.0253,0.0014,9.7300,0.0018,0.0011,-0.0001,27.7800
22180954.0000,0.0147,0.0514,9.8000,0.0018,0.0011,-0.0001,27.6800
22203954.0000,-0.0253,0.0314,9.7400,0.0018,0.0011,-0.0001,27.6800
22226954.0000,0.0547,-0.0186,9.8700,0.0018,0.0011,-0.0001,27.7300
22249954.0000,0.0147,0.0214,9.8500,0.0018,0.0011,-0.0001,27.6400
22272954.0000,0.0347,-0.0086,9.8400,0.0018,0.0011,-0.0001,27.6400
22295954.0000,-0.0253,-0.0186,9.8000,0.0018,-0.0089,-0.0001,27.7300
22318953.0000,0.0147,0.0414,9.7000,-0.0082,0.0011,-0.0001,27.7800
22341954.0000,-0.0353,0.0114,9.9100,0.0018,0.0011,-0.0001,27.6800
22364954.0000,-0.0053,0.0414,9.7900,0.0018,0.0011,-0.0001,27.6800
22387954.0000,-0.0153,0.0214,9.8400,0.0018,0.0011,-0.0001,27.6800
22410954.0000,-0.0453,0.0014,9.7900,0.0018,0.0011,-0.0001,27.6400
22433954.0000,0.0247,-0.0286,9.7900,0.0018,0.0011,-0.0001,27.6400
22456954.0000,-0.0053,0.0314,9.8000,0.0018,0.0011,-0.0001,27.7300
22479954.0000,-0.0353,-0.0086,9.8500,0.0018,-0.0089,-0.0001,27.7300
22502954.0000,0.0647,0.0114,9.7900,0.0018,0.0011,-0.0001,27.7300
22525954.0000,-0.0053,0.0314,9.8100,0.0018,0.0011,-0.0001,27.6800
22548953.0000,0.0147,-0.0286,9.7800,0.0018,0.0011,-0.0001,27.7800
22571954.0000,-0.0553,-0.0086,9.9000,0.0018,0.0011,-0.0001,27.6800
22594954.0000,0.0147,0.0014,9.7900,0.0018,-0.0089,-0.0001,27.6800
22617954.0000,-0.0253,-0.0086,9.8200,0.0018,0.0011,-0.0001,27.6400
22640954.0000,-0.0153,0.0214,9.7900,0.0018,0.0011,-0.0001,27.6400
22663954.0000,-0.0053,-0.0086,9.7300,0.0018,0.0011,-0.0001,27.7300
22686954.0000,-0.0553,0.0114,9.8100,0.0018,-0.0089,-0.0001,27.7300
22709954.0000,-0.0453,-0.0086,9.8300,0.0018,0.0011,-0.0001,27.7300
22732954.0000,-0.0153,-0.0686,9.7900,0.0018,0.0011,-0.0001,27.7300
22755954.0000,0.0347,-0.0586,9.8500,0.0018,-0.0089,-0.0001,27.6800
22778954.0000,-0.0153,-0.0086,9.8700,0.0018,0.0011,-0.0001,27.6800
22801954.0000,-0.0753,-0.0086,9.8700,0.0018,0.0011,-0.0001,27.6800
22824954.0000,-0.0353,-0.0086,9.8100,0.0018,0.0011,-0.0001,27.7300
22847954.0000,0.0047,-0.0186,9.8700,0.0018,0.0011,-0.0001,27.6400
22870954.0000,0.0147,-0.0986,9.8400,0.0018,-0.0089,-0.0001,27.7300
22893954.0000,0.0647,-0.0286,9.8100,0.0018,0.0011,-0.0001,27.7300
22916954.0000,-0.0653,-0.0186,9.9000,0.0018,0.0011,-0.0001,27.6800
22939954.0000,0.0247,-0.0386,9.8000,-0.0082,0.0011,-0.0001,27.6800
22962953.0000,-0.0153,-0.0286,9.8800,0.0018,-0.0089,-0.0001,27.7800
22985954.0000,0.0047,0.0314,9.7600,0.0018,0.0011,-0.0001,27.6800
23008954.0000,-0.0153,-0.0486,9.7900,-0.0082,0.0011,-0.0001,27.6800
23031954.0000,0.0347,-0.0186,9.9000,-0.0082,-0.0089,-0.0001,27.7300
23054954.0000,0.0147,-0.0586,9.8700,0.0018,0.0011,-0.0001,27.7300
23077954.0000,-0.0253,0.0114,9.8300,0.0018,0.0011,-0.0001,27.7300
23100954.0000,0.0047,-0.0486,9.7800,0.0018,0.0011,-0.0001,27.6400
23123954.0000,0.0047,0.0414,9.7300,0.0018,0.0011,-0.0001,27.6800
23146954.0000,-0.0553,-0.0086,9.8200,0.0018,0.0011,-0.0001,27.6800
23169954.0000,-0.1053,-0.0086,9.8400,0.0018,0.0011,-0.0001,27.6800
23192954.0000,0.0147,0.0014,9.8100,-0.0082,0.0011,-0.0001,27.6800
23215954.0000,0.0047,-0.0186,9.7600,-0.0082,0.0011,-0.0001,27.7300
23238954.0000,0.0247,-0.0686,9.7200,0.0018,0.0011,-0.0001,27.7300
23261954.0000,-0.0353,-0.0386,9.7200,0.0018,0.0011,-0.0001,27.7300
23284954.0000,0.0247,-0.0286,9.7500,0.0018,0.0011,-0.0001,27.6400
23307954.0000,0.0447,-0.0086,9.7600,-0.0082,0.0011,-0.0001,27.7300
23330954.0000,-0.0053,0.0114,9.8500,0.0018,0.0011,-0.0001,27.6800
23353954.0000,-0.0053,-0.0486,9.7400,0.0018,0.0011,-0.0001,27.6800
23376954.0000,-0.0253,0.0014,9.7400,0.0018,0.0011,-0.0001,27.6800
23399953.0000,-0.0053,0.0014,9.7600,-0.0082,0.0011,-0.0001,27.7800
23422954.0000,-0.0053,-0.0486,9.7700,-0.0082,0.0011,-0.0001,27.6400
23445954.0000,0.0447,0.0514,9.8700,0.0018,0.0011,-0.0001,27.7300
23468954.0000,-0.0053,0.0114,9.7700,0.0018,0.0011,-0.0001,27.7300
23491954.0000,0.0347,0.0214,9.7100,0.0018,0.0011,-0.0001,27.7300
23514954.0000,-0.0353,-0.0186,9.8800,0.0018,0.0011,-0.0001,27.7300
23537954.0000,0.0047,-0.0286,9.7100,0.0018,0.0011,-0.0001,27.6400
23560953.0000,0.0447,0.0314,9.7900,0.0018,0.0011,-0.0001,27.7800
23583954.0000,0.0147,0.0114,9.8200,0.0018,0.0011,-0.0001,27.6800
23606954.0000,0.0147,-0.0786,9.8300,0.0018,-0.0089,-0.0001,27.6800
23629954.0000,-0.0553,0.0414,9.8400,-0.0082,0.0011,-0.0001,27.7300
23652954.0000,0.0047,-0.0086,9.7900,0.0018,0.0011,-0.0001,27.7300
23675954.0000,0.0047,0.0014,9.8000,0.0018,0.0011,-0.0001,27.6400
23698954.0000,-0.0553,0.0014,9.7600,0.0018,-0.0089,-0.0001,27.8200
23721954.0000,-0.0053,-0.0486,9.7200,0.0018,0.0011,-0.0001,27.6800
23744954.0000,0.0047,-0.0086,9.7900,0.0018,0.0011,0.0099,27.6800
23767954.0000,-0.0553,-0.0286,9.7900,0.0018,0.0011,-0.0001,27.6800
23790954.0000,0.0347,0.0514,9.8100,0.0018,0.0011,-0.0001,27.6800
23813954.0000,-0.0353,0.0014,9.8700,0.0018,0.0011,-0.0001,27.6400
23836954.0000,-0.0053,-0.0286,9.7500,0.0018,0.0011,-0.0001,27.6400
23859954.0000,0.0047,0.0814,9.8300,-0.0082,0.0011,-0.0001,27.7300
23882954.0000,-0.0453,-0.0186,9.7400,0.0018,-0.0089,-0.0001,27.7300
23905954.0000,0.0347,-0.0386,9.9100,0.0018,0.0011,-0.0001,27.7300
23928953.0000,0.0147,0.0114,9.7900,-0.0082,-0.0089,-0.0001,27.7800
23951954.0000,0.0347,-0.0186,9.7500,0.0018,-0.0089,-0.0001,27.6800
23974954.0000,0.0647,0.0214,9.7800,0.0018,0.0011,-0.0001,27.6800
23997953.0000,0.0047,0.0014,9.7300,0.0018,0.0011,-0.0001,27.7800
24020954.0000,0.0347,-0.0386,9.8700,-0.0082,-0.0089,-0.0001,27.7300
24043954.0000,-0.0653,0.0114,9.8200,0.0018,0.0011,-0.0001,27.6400
24066954.0000,0.0247,0.0214,9.8500,0.0018,0.0011,-0.0001,27.7300
24089954.0000,-0.0053,-0.0386,9.8000,0.0018,0.0011,-0.0001,27.6400
24112953.0000,-0.0253,-0.0286,9.9000,-0.0082,0.0011,-0.0001,27.7800
24135953.0000,0.0547,-0.0086,9.7600,0.0018,0.0011,-0.0001,27.7800
24158954.0000,-0.0553,-0.0686,9.8100,0.0018,0.0011,0.0099,27.6800
24181954.0000,0.0247,0.0314,9.7800,-0.0082,0.0011,-0.0001,27.6800
24204954.0000,-0.0153,0.0114,9.7100,0.0018,0.0011,-0.0001,27.6800
24227954.0000,-0.0153,-0.0386,9.8600,0.0018,0.0011,-0.0001,27.6400
24250954.0000,0.0247,0.0314,9.8300,0.0018,0.0011,-0.0001,27.6400
24273954.0000,-0.0353,0.0514,9.7800,0.0018,0.0011,-0.0001,27.6400
24296954.0000,0.0147,-0.0186,9.7600,0.0018,0.0011,-0.0001,27.6400
24319954.0000,0.0347,-0.0086,9.7500,-0.0082,0.0011,-0.0001,27.7300
24342954.0000,-0.0453,-0.0286,9.8400,-0.0082,0.0011,-0.0001,27.6400
24365954.0000,-0.0253,0.0514,9.7500,0.0018,0.0011,0.0099,27.5900
24388954.0000,0.0347,-0.0286,9.8600,-0.0082,0.0011,-0.0001,27.6800
24411954.0000,-0.0053,0.0114,9.8100,0.0018,0.0011,-0.0001,27.6800
24434954.0000,0.0847,0.0614,9.8100,0.0018,0.0011,-0.0001,27.7300
24457954.0000,0.0147,-0.0286,9.8500,0.0018,0.0011,-0.0001,27.6400
24480954.0000,0.0747,0.0114,9.7700,0.0018,0.0011,-0.0001,27.6400
24503954.0000,0.0147,-0.0086,9.6900,-0.0082,-0.0089,-0.0001,27.7300
24526954.0000,0.0547,-0.0086,9.8600,0.0018,0.0011,-0.0001,27.6800
24549954.0000,-0.0153,-0.0086,9.8700,0.0018,0.0011,-0.0001,27.6800
24572953.0000,-0.0253,0.0614,9.9300,0.0018,0.0011,-0.0001,27.7800
24595953.0000,-0.0253,0.0514,9.7000,0.0018,0.0011,-0.0001,27.7800
24618954.0000,0.0447,0.0414,9.7900,0.0018,0.0011,-0.0001,27.7300
24641954.0000,0.0147,0.0414,9.7400,0.0018,0.0011,-0.0001,27.6400
24664954.0000,0.0147,-0.0286,9.7100,0.0018,0.0011,-0.0001,27.7300
24687954.0000,0.0147,0.0114,9.8600,0.0018,0.0011,-0.0001,27.6400
24710954.0000,-0.0053,-0.0286,9.9500,0.0018,0.0011,-0.0001,27.6400
24733954.0000,-0.0153,-0.0086,9.8100,0.0018,0.0011,-0.0001,27.6800
24756954.0000,-0.0053,-0.0486,9.7100,0.0018,0.0011,-0.0001,27.6800
24779953.0000,0.0747,0.0014,9.8000,0.0018,0.0011,-0.0001,27.7800
24802954.0000,-0.0053,0.0114,9.8200,0.0018,0.0011,-0.0001,27.6800
24825954.0000,-0.0153,-0.0086,9.8500,0.0018,0.0011,-0.0001,27.8200
24848954.0000,0.0047,-0.0586,9.8100,0.0018,0.0011,-0.0001,27.7300
24871954.0000,-0.0353,-0.0386,9.9100,0.0018,0.0011,-0.0001,27.7300
24894954.0000,0.0047,-0.0286,9.7700,0.0018,0.0011,-0.0001,27.7300
24917954.0000,0.0347,0.0314,9.8100,0.0018,0.0011,-0.0001,27.6800
24940953.0000,-0.0553,-0.0286,9.7800,0.0018,0.0011,-0.0001,27.7800
24963954.0000,0.0247,0.0214,9.8100,0.0018,0.0011,-0.0001,27.6800
24986954.0000,0.0247,-0.0386,9.7500,0.0018,0.0011,-0.0001,27.6800
25009954.0000,0.0047,-0.0486,9.8600,-0.0082,0.0011,-0.0001,27.6800
25032954.0000,-0.0053,0.0014,9.8200,0.0018,0.0011,-0.0001,27.7300
25055954.0000,0.0047,0.0314,9.7900,0.0018,0.0011,-0.0001,27.7300
25078954.0000,0.0147,-0.0286,9.8100,-0.0082,0.0011,-0.0001,27.7300
25101954.0000,-0.0453,0.0114,9.8200,0.0018,0.0011,-0.0001,27.7300
25124954.0000,-0.0353,0.0314,9.7800,-0.0082,0.0011,-0.0001,27.6400
25147954.0000,0.0047,0.0314,9.8700,0.0018,-0.0089,-0.0001,27.6400
25170954.0000,0.0147,-0.0086,9.8100,0.0018,0.0011,-0.0001,27.6800
25193954.0000,-0.0053,0.0514,9.8600,0.0018,0.0011,-0.0001,27.6800
25216954.0000,0.0147,0.0314,9.7900,0.0018,0.0011,-0.0001,27.7300
25239954.0000,0.0547,0.0014,9.8200,0.0018,0.0011,-0.0001,27.7300
25262954.0000,0.0147,-0.0086,9.7600,0.0018,-0.0089,-0.0001,27.7300
25285954.0000,0.0147,0.0414,9.8300,0.0018,0.0011,-0.0001,27.7300
25308954.0000,-0.0153,0.0014,9.8600,0.0018,0.0011,-0.0001,27.6400
25331954.0000,0.0047,0.0114,9.7600,0.0018,0.0011,-0.0001,27.6800
25354954.0000,0.0347,0.0014,9.9400,0.0018,0.0011,-0.0001,27.6800
25377953.0000,-0.0153,0.0014,9.8200,0.0018,0.0011,-0.0001,27.7800
25400954.0000,0.0147,0.0414,9.8700,0.0018,0.0011,-0.0001,27.6800
25423954.0000,0.0647,-0.0286,9.8100,0.0018,0.0011,-0.0001,27.7300
25446954.0000,-0.0053,0.0014,9.7600,-0.0082,0.0011,-0.0001,27.7300
25469954.0000,-0.0353,0.0514,9.7900,0.0018,0.0011,-0.0001,27.7300
25492954.0000,0.0147,0.0014,9.7600,0.0018,0.0011,-0.0001,27.7300
25515954.0000,0.0247,0.1014,9.8100,0.0018,-0.0089,-0.0001,27.6800
25538954.0000,0.0347,-0.0086,9.7700,0.0018,0.0011,-0.0001,27.6800
25561954.0000,-0.0153,-0.0086,9.8400,0.0018,0.0011,-0.0001,27.6800
25584954.0000,0.0347,-0.0686,9.8600,0.0018,0.0011,-0.0001,27.5900
25607954.0000,-0.0353,0.0314,9.8600,0.0018,0.0011,-0.0001,27.6800
25630954.0000,0.0247,0.0214,9.8100,0.0018,0.0011,-0.0001,27.7300
25653954.0000,0.0147,0.0414,9.8800,0.0018,0.0011,-0.0001,27.7300
25676954.0000,0.0147,-0.0186,9.8500,0.0018,0.0011,-0.0001,27.6400
25699954.0000,-0.0453,-0.0286,9.8200,-0.0082,-0.0089,-0.0001,27.7300
25722954.0000,0.0047,-0.0286,9.7200,0.0018,-0.0089,-0.0001,27.6800
25745954.0000,-0.0053,0.0214,9.8600,0.0018,0.0011,-0.0001,27.6800
25768954.0000,0.0247,0.0714,9.8100,-0.0082,0.0011,-0.0001,27.6800
25791954.0000,0.0047,-0.0186,9.8400,0.0018,0.0011,-0.0001,27.6800
25814954.0000,-0.0153,0.0014,9.8800,0.0018,0.0011,-0.0001,27.5900
25837954.0000,0.0447,-0.0386,9.7800,0.0018,0.0011,0.0099,27.7300
25860954.0000,-0.0053,0.0014,9.8600,0.0018,-0.0089,-0.0001,27.7300
25883954.0000,0.0347,0.0414,9.8500,0.0018,0.0011,-0.0001,27.7300
25906954.0000,-0.0153,0.0014,9.8600,0.0018,0.0011,-0.0001,27.6400
25929954.0000,-0.0253,-0.0186,9.7500,0.0018,-0.0089,-0.0001,27.7300
25952954.0000,-0.0353,-0.0686,9.8000,0.0018,0.0011,-0.0001,27.6800
25975954.0000,-0.0553,-0.0686,9.8300,0.0018,0.0011,-0.0001,27.6800
25998954.0000,-0.0453,0.0414,9.8100,0.0018,0.0011,-0.0001,27.6800
26021954.0000,-0.0053,0.0214,9.7200,0.0018,0.0011,-0.0001,27.7300
26044954.0000,-0.0453,0.0414,9.7300,-0.0082,0.0011,-0.0001,27.7300
26067954.0000,-0.0153,0.0014,9.8100,0.0018,0.0011,-0.0001,27.7300
26090954.0000,0.0347,-0.0086,9.7900,0.0018,0.0011,-0.0001,27.6400
26113954.0000,-0.0053,-0.0686,9.8200,0.0018,0.0011,-0.0001,27.6400
26136953.0000,-0.0353,-0.0386,9.8300,0.0018,-0.0089,-0.0001,27.7800
26159954.0000,0.0147,0.0514,9.8900,0.0018,0.0011,-0.0001,27.5900
26182954.0000,-0.0053,0.0014,9.7800,-0.0082,-0.0089,-0.0001,27.6800
26205953.0000,0.0147,-0.0086,9.8400,-0.0082,-0.0089,-0.0001,27.7800
26228954.0000,0.0347,-0.0486,9.7700,0.0018,0.0011,-0.0001,27.6400
26251954.0000,-0.0053,-0.0586,9.9000,0.0018,0.0011,-0.0001,27.6400
26274954.0000,0.0047,0.0214,9.8500,0.0018,0.0011,-0.0001,27.7300
26297954.0000,0.0147,0.0414,9.7000,0.0018,-0.0089,-0.0001,27.7300
26320953.0000,0.0347,0.0114,9.7900,-0.0082,0.0011,-0.0001,27.7800
26343953.0000,-0.0453,0.0214,9.8400,0.0018,0.0011,-0.0001,27.7800
26366953.0000,-0.0053,-0.0586,9.7900,0.0018,0.0011,-0.0001,27.7800
26389954.0000,-0.0253,-0.0286,9.9100,0.0018,0.0011,-0.0001,27.6800
26412954.0000,-0.0353,-0.0086,9.9100,0.0018,0.0011,-0.0001,27.6800
26435954.0000,0.0247,0.0214,9.8800,0.0018,0.0011,-0.0001,27.7300
26458954.0000,-0.0353,-0.0086,9.7600,0.0018,0.0011,-0.0001,27.6400
26481954.0000,0.0347,0.0414,9.7700,-0.0082,0.0011,-0.0001,27.7300
26504954.0000,0.0247,0.0414,9.7700,-0.0082,0.0011,-0.0001,27.6400
26527954.0000,-0.0253,0.0414,9.7600,-0.0082,0.0011,-0.0001,27.6800
26550954.0000,-0.0353,-0.0486,9.7000,0.0018,0.0011,-0.0001,27.6800
26573953.0000,-0.0653,0.0714,9.7700,0.0018,0.0011,-0.0001,27.7800
26596954.0000,-0.0253,0.0514,9.7500,0.0018,0.0011,-0.0001,27.6800
26619954.0000,0.0447,-0.0286,9.7500,0.0018,0.0011,-0.0001,27.8200
26642954.0000,-0.0353,-0.0086,9.7700,0.0018,0.0011,-0.0001,27.7300
26665954.0000,0.0147,0.0014,9.7300,0.0018,0.0011,-0.0001,27.7300
26688954.0000,0.0047,-0.0486,9.8100,0.0018,0.0011,-0.0001,27.7300
26711954.0000,0.0047,-0.0486,9.7100,0.0018,0.0011,-0.0001,27.7300
26734954.0000,0.0347,0.0514,9.9000,-0.0082,0.0011,-0.0001,27.8200
26757954.0000,0.0047,-0.0086,9.7900,0.0018,0.0011,-0.0001,27.5900
26780954.0000,-0.0153,-0.0386,9.7500,0.0018,0.0011,-0.0001,27.6800
26803953.0000,-0.0453,0.0714,9.7600,0.0018,0.0011,-0.0001,27.7800
26826954.0000,-0.0153,0.0314,9.7300,-0.0082,0.0011,-0.0001,27.6400
26849954.0000,0.0047,0.0414,9.8300,-0.0082,0.0011,-0.0001,27.6400
26872954.0000,-0.0153,0.0014,9.8100,-0.0082,0.0011,-0.0001,27.6400
26895954.0000,0.0747,-0.0186,9.8100,0.0018,0.0011,-0.0001,27.7300
26918954.0000,0.0147,0.0314,9.8000,0.0018,0.0011,-0.0001,27.6800
26941953.0000,-0.0153,0.0014,9.8700,0.0018,0.0011,-0.0001,27.7800
26964954.0000,0.0247,0.0214,9.8100,0.0018,0.0011,-0.0001,27.5900
26987954.0000,0.0247,0.0314,9.8500,0.0018,0.0011,-0.0001,27.5900
27010954.0000,0.0247,0.0314,9.8200,0.0018,0.0011,-0.0001,27.6800
27033954.0000,-0.0253,0.0314,9.7800,0.0018,0.0011,-0.0001,27.7300
27056954.0000,-0.0453,-0.0186,9.7700,0.0018,0.0011,-0.0001,27.6400
27079954.0000,-0.0253,-0.0586,9.8000,0.0018,0.0011,-0.0001,27.6400
27102954.0000,0.0347,-0.0086,9.8100,0.0018,0.0011,-0.0001,27.7300
27125954.0000,0.0247,-0.0586,9.8000,0.0018,0.0011,-0.0001,27.6800
27148954.0000,0.0347,-0.0186,9.9300,0.0018,0.0011,-0.0001,27.6800
27171953.0000,0.0147,0.0614,9.9000,0.0018,0.0011,-0.0001,27.7800
27194954.0000,0.0047,-0.0086,9.7400,0.0018,0.0011,-0.0001,27.6800
27217954.0000,0.0447,0.0514,9.9000,0.0018,0.0011,-0.0001,27.6800
27240954.0000,-0.0153,0.0314,9.6800,0.0018,-0.0089,-0.0001,27.7300
27263954.0000,-0.0053,-0.0186,9.8100,0.0018,0.0011,-0.0001,27.7300
27286954.0000,0.0247,-0.0686,9.7300,0.0018,-0.0089,-0.0001,27.7300
27309954.0000,-0.0153,-0.0186,9.8300,0.0018,-0.0089,-0.0001,27.7300
27332953.0000,0.0147,-0.0586,9.8700,0.0018,0.0011,0.0099,27.7800
27355954.0000,-0.0453,-0.0286,9.6900,0.0018,0.0011,0.0099,27.5900
27378954.0000,0.0147,-0.0686,9.8200,0.0018,0.0011,-0.0001,27.6800
27401953.0000,-0.0253,-0.0086,9.7500,0.0018,0.0011,-0.0001,27.7800
27424954.0000,0.0247,-0.0086,9.8200,0.0018,0.0011,-0.0001,27.6400
27447954.0000,0.0147,0.0214,9.8300,-0.0082,-0.0089,-0.0001,27.6400
27470954.0000,0.0347,0.0614,9.7100,0.0018,0.0011,-0.0001,27.7300
27493954.0000,0.0047,0.0314,9.8400,0.0018,0.0011,-0.0001,27.6400
27516954.0000,-0.0453,0.0114,9.7500,0.0018,0.0011,-0.0001,27.7300
27539954.0000,0.0147,-0.0286,9.8700,0.0018,0.0011,-0.0001,27.7300
27562953.0000,0.0047,0.0214,9.7400,0.0018,0.0011,-0.0001,27.7800
27585953.0000,0.0147,0.0214,9.8300,0.0018,0.0011,-0.0001,27.7800
27608954.0000,-0.0453,-0.0686,9.7500,0.0018,0.0011,-0.0001,27.5900
27631954.0000,0.0047,-0.0086,9.7000,0.0018,0.0011,-0.0001,27.6400
27654954.0000,0.0347,-0.0486,9.7700,0.0018,0.0011,-0.0001,27.6400
27677954.0000,-0.0553,0.0014,9.7500,0.0018,0.0011,-0.0001,27.6400
27700954.0000,0.0047,-0.0086,9.7900,-0.0082,0.0011,-0.0001,27.7300
27723954.0000,-0.0153,0.0314,9.8200,0.0018,0.0011,-0.0001,27.6800
27746954.0000,0.0147,-0.0086,9.8400,0.0018,0.0011,-0.0001,27.6800
27769953.0000,-0.0153,0.0214,9.8000,0.0018,0.0011,-0.0001,27.7800
27792953.0000,-0.0153,0.0014,9.7900,0.0018,0.0011,-0.0001,27.7800
27815954.0000,-0.0053,0.0414,9.7000,0.0018,0.0011,-0.0001,27.6800
27838954.0000,0.0047,0.0214,9.7400,-0.0082,0.0011,-0.0001,27.7300
27861954.0000,-0.0753,0.0414,9.8700,-0.0082,0.0011,-0.0001,27.7300
27884954.0000,0.0247,-0.0386,9.8800,0.0018,-0.0089,-0.0001,27.7300
27907954.0000,0.0547,0.0014,9.7900,-0.0082,0.0011,-0.0001,27.7300
27930953.0000,0.0847,0.0314,9.7800,0.0018,0.0011,-0.0001,27.7800
27953953.0000,0.0047,-0.0386,9.7900,0.0018,0.0011,-0.0001,27.7800
27976953.0000,-0.0453,-0.0486,9.7700,0.0018,0.0011,-0.0001,27.7800
27999953.0000,0.0147,0.0614,9.7800,0.0018,0.0011,-0.0001,27.7800
28022954.0000,-0.0253,-0.0186,9.8400,0.0018,0.0011,-0.0001,27.7300
28045954.0000,0.0147,-0.0386,9.8200,0.0018,0.0011,-0.0001,27.6400
28068954.0000,-0.0253,-0.0486,9.8100,0.0018,0.0011,-0.0001,27.7300
28091954.0000,-0.0153,-0.0186,9.8500,0.0018,0.0011,-0.0001,27.7300
28114954.0000,-0.0453,-0.0086,9.8600,0.0018,0.0011,-0.0001,27.7300
28137954.0000,-0.0153,-0.0186,9.8500,0.0018,0.0011,-0.0001,27.6800
28160954.0000,0.0047,-0.0186,9.7700,0.0018,0.0011,-0.0001,27.6800
28183954.0000,0.0347,0.0214,9.7100,0.0018,0.0011,-0.0001,27.6800
28206954.0000,0.0347,-0.0186,9.8200,0.0018,0.0011,0.0099,27.6800
28229954.0000,0.0147,0.0314,9.8500,0.0018,0.0011,-0.0001,27.7300
28252954.0000,0.0147,-0.0186,9.7200,0.0018,0.0011,-0.0001,27.6400
28275954.0000,0.0047,0.0414,9.8900,0.0018,0.0011,-0.0001,27.7300
28298954.0000,0.0447,0.0614,9.7600,0.0018,0.0011,-0.0001,27.7300
28321954.0000,-0.0153,-0.0486,9.7600,0.0018,0.0011,-0.0001,27.6400
28344954.0000,-0.1053,0.0114,9.7900,0.0018,0.0011,-0.0001,27.7300
28367953.0000,0.0247,-0.0286,9.7600,-0.0082,0.0011,-0.0001,27.7800
28390953.0000,0.0047,0.0114,9.8600,-0.0082,0.0011,-0.0001,27.7800
28413953.0000,0.0847,0.0314,9.8200,0.0018,0.0011,-0.0001,27.7800
28436954.0000,-0.0453,-0.0386,9.7800,-0.0082,0.0011,-0.0001,27.6400
28459954.0000,0.0247,-0.0786,9.8000,0.0018,0.0011,-0.0001,27.6400
28482954.0000,-0.0053,0.0414,9.8100,0.0018,0.0011,-0.0001,27.7300
28505954.0000,0.0447,-0.0086,9.8200,0.0018,-0.0089,-0.0001,27.8200
28528954.0000,-0.0253,-0.0086,9.8600,0.0018,0.0011,-0.0001,27.6800
28551954.0000,-0.0453,-0.0186,9.8500,0.0018,0.0011,-0.0001,27.6800
28574954.0000,0.0047,0.0114,9.7300,0.0018,0.0011,-0.0001,27.6800
28597954.0000,-0.0553,-0.0286,9.7800,0.0018,0.0011,-0.0001,27.6800
28620954.0000,-0.0553,0.0114,9.8400,0.0018,0.0011,-0.0001,27.6800
28643954.0000,-0.0253,0.0014,9.7700,0.0018,0.0011,-0.0001,27.7300
28666954.0000,0.0247,0.0114,9.8300,0.0018,0.0011,-0.0001,27.7300
28689954.0000,0.0747,0.0514,9.8100,-0.0082,0.0011,-0.0001,27.6400
28712954.0000,-0.0153,-0.0386,9.8200,0.0018,0.0011,-0.0001,27.6400
28735954.0000,0.0147,0.0114,9.8500,0.0018,0.0011,-0.0001,27.6800
28758954.0000,0.0047,-0.0086,9.7800,0.0018,0.0011,-0.0001,27.6800
28781953.0000,0.0247,-0.0086,9.7500,0.0018,0.0011,-0.0001,27.7800
28804953.0000,-0.0153,0.0714,9.7700,0.0018,0.0011,-0.0001,27.7800
28827954.0000,-0.0353,-0.0186,9.8300,-0.0082,0.0011,-0.0001,27.7300
28850954.0000,0.0147,0.0314,9.8500,0.0018,0.0011,-0.0001,27.6400
28873954.0000,0.0147,-0.0586,9.8400,0.0018,0.0011,-0.0001,27.7300
28896954.0000,-0.0153,-0.0286,9.8000,0.0018,0.0011,-0.0001,27.7300
28919954.0000,0.0347,0.0414,9.7600,0.0018,0.0011,-0.0001,27.7300
28942953.0000,0.0047,0.0114,9.8800,-0.0082,0.0011,-0.0001,27.7800
28965954.0000,0.0347,0.0314,9.8600,0.0018,0.0011,-0.0001,27.6800
28988954.0000,0.0147,0.0014,9.7800,0.0018,0.0011,-0.0001,27.6800
29011954.0000,0.0547,-0.0086,9.7600,0.0018,0.0011,-0.0001,27.6800
29034954.0000,-0.0653,-0.0586,9.7300,0.0018,0.0011,-0.0001,27.7300
29057954.0000,-0.0253,0.0314,9.7900,0.0018,0.0011,-0.0001,27.6400
29080954.0000,0.0047,-0.0086,9.7300,0.0018,0.0011,-0.0001,27.7300
29103954.0000,0.0447,0.0114,9.8200,0.0018,0.0011,-0.0001,27.7300
29126954.0000,0.0647,0.0614,9.8600,0.0018,0.0011,-0.0001,27.8200
29149954.0000,0.0047,0.0214,9.8100,0.0018,0.0011,-0.0001,27.7300
29172954.0000,-0.0353,0.0714,9.8600,-0.0082,0.0011,-0.0001,27.5900
29195953.0000,-0.0153,0.0314,9.7300,0.0018,-0.0089,0.0099,27.7800
29218954.0000,0.0147,-0.0386,9.8700,0.0018,0.0011,-0.0001,27.6800
29241954.0000,0.0047,0.0214,9.9100,0.0018,0.0011,-0.0001,27.6400
29264954.0000,-0.0353,0.0114,9.8400,-0.0082,0.0011,-0.0001,27.7300
29287954.0000,-0.0453,-0.0086,9.7900,0.0018,0.0011,-0.0001,27.7300
29310954.0000,-0.0153,0.0514,9.8200,0.0018,0.0011,-0.0001,27.7300
29333954.0000,0.0747,0.0514,9.8700,-0.0082,-0.0089,-0.0001,27.6800
29356954.0000,-0.0353,0.0014,9.8100,-0.0082,0.0011,-0.0001,27.6800
29379953.0000,-0.0253,-0.0186,9.8500,0.0018,0.0011,-0.0001,27.7800
29402954.0000,0.0047,-0.0086,9.8000,0.0018,0.0011,-0.0001,27.6800
29425954.0000,0.0347,0.0314,9.8100,0.0018,0.0011,-0.0001,27.6400
29448954.0000,-0.0353,0.0214,9.8100,0.0018,0.0011,-0.0001,27.7300
29471954.0000,0.0047,0.0114,9.7500,-0.0082,0.0011,-0.0001,27.6400
29494954.0000,-0.0253,0.0314,9.7700,0.0018,0.0011,-0.0001,27.6400
29517954.0000,-0.0553,-0.0086,9.8800,0.0018,-0.0089,-0.0001,27.7300
29540954.0000,0.0147,-0.0086,9.7800,0.0018,0.0011,-0.0001,27.6800
29563954.0000,0.0047,0.0214,9.8300,0.0018,0.0011,-0.0001,27.6800
29586954.0000,-0.0253,-0.0186,9.7600,-0.0082,-0.0089,-0.0001,27.6800
29609954.0000,0.0147,0.0314,9.7200,0.0018,0.0011,-0.0001,27.6800
29632954.0000,0.0447,-0.0086,9.8100,0.0018,0.0011,-0.0001,27.7300
29655954.0000,0.0147,-0.0186,9.8600,0.0018,0.0011,-0.0001,27.7300
29678954.0000,-0.0253,-0.0186,9.7900,0.0018,0.0011,-0.0001,27.7300
29701954.0000,0.0347,-0.0086,9.8100,0.0018,0.0011,-0.0001,27.8200
29724953.0000,0.0347,0.0014,9.8000,0.0018,0.0011,-0.0001,27.7800
29747953.0000,-0.0453,0.0214,9.8600,0.0018,-0.0089,-0.0001,27.7800
29770954.0000,-0.0153,0.0214,9.7000,0.0018,0.0011,-0.0001,27.6800
29793954.0000,0.0347,0.0114,9.8300,0.0018,0.0011,-0.0001,27.5900
29816953.0000,-0.0253,0.0314,9.9000,0.0018,0.0011,-0.0001,27.7800
29839954.0000,-0.0153,-0.0086,9.7400,-0.0082,0.0011,-0.0001,27.7300
29862954.0000,0.0447,-0.0086,9.8200,0.0018,0.0011,-0.0001,27.6400
29885954.0000,0.0547,0.0414,9.8100,0.0018,0.0011,-0.0001,27.6400
29908954.0000,-0.0153,0.0914,9.7500,0.0018,0.0011,-0.0001,27.6400
29931954.0000,0.0847,0.0314,9.8900,0.0018,0.0011,-0.0001,27.6400
29954954.0000,-0.0053,-0.0286,9.8200,0.0018,0.0011,-0.0001,27.6400
29977953.0000,-0.0253,-0.0886,9.7500,-0.0082,0.0011,-0.0001,27.7800
30000954.0000,0.0247,-0.0386,9.8100,-0.0082,-0.0089,-0.0001,27.6800
30023954.0000,-0.0353,0.0314,9.7400,-0.0082,0.0011,-0.0001,27.6800
30046954.0000,0.0047,-0.0286,9.7300,0.0018,0.0011,-0.0001,27.7300
30069954.0000,0.0647,0.0214,9.7400,0.0018,-0.0089,-0.0001,27.6400
30092954.0000,-0.0253,0.0714,9.8300,0.0018,0.0011,-0.0001,27.6400
30115954.0000,-0.0153,0.0114,9.7600,0.0018,0.0011,-0.0001,27.7300
30138953.0000,0.0147,0.0214,9.7300,0.0018,0.0011,-0.0001,27.7800
30161954.0000,-0.0053,0.0214,9.7300,-0.0082,0.0011,-0.0001,27.5900
30184954.0000,-0.0153,0.0314,9.8500,0.0018,0.0011,-0.0001,27.6800
30207954.0000,0.0247,-0.0286,9.8300,0.0018,-0.0089,-0.0001,27.6800
30230954.0000,0.0547,0.0314,9.7600,0.0018,0.0011,-0.0001,27.6400
30253954.0000,-0.0053,0.0214,9.8100,0.0018,0.0011,-0.0001,27.6400
30276954.0000,0.0147,-0.0086,9.7400,0.0018,0.0011,-0.0001,27.6400
30299954.0000,0.0047,0.0214,9.8600,0.0018,0.0011,-0.0001,27.7300
30322954.0000,0.0147,-0.0186,9.8100,0.0018,0.0011,-0.0001,27.6400
30345953.0000,0.0347,0.0114,9.8300,0.0018,0.0011,-0.0001,27.7800
30368954.0000,0.0147,-0.0086,9.8200,0.0018,0.0011,-0.0001,27.6800
30391954.0000,0.0147,-0.0486,9.8400,0.0018,0.0011,-0.0001,27.6800
30414954.0000,-0.0153,0.0314,9.8100,0.0018,-0.0089,-0.0001,27.6800
30437954.0000,0.0447,-0.0586,9.8100,0.0018,0.0011,-0.0001,27.7300
30460954.0000,-0.0253,-0.0686,9.8700,0.0018,0.0011,-0.0001,27.7300
30483954.0000,0.0347,-0.0186,9.8500,0.0018,0.0011,-0.0001,27.6400
30506954.0000,0.0047,-0.0086,9.8000,0.0018,0.0011,-0.0001,27.6400
30529954.0000,0.0047,0.0014,9.8000,0.0018,0.0011,-0.0001,27.6800
30552954.0000,-0.0553,0.0514,9.7600,0.0018,0.0011,-0.0001,27.6800
30575954.0000,-0.0453,0.0914,9.7800,0.0018,0.0011,-0.0001,27.6800
30598954.0000,0.0047,0.0514,9.7100,0.0018,0.0011,-0.0001,27.6800
30621953.0000,0.0747,0.0114,9.8100,0.0018,-0.0089,-0.0001,27.7800
30644954.0000,-0.0053,-0.0286,9.7600,0.0018,0.0011,-0.0001,27.7300
30667954.0000,0.0147,-0.0086,9.8600,0.0018,0.0011,-0.0001,27.7300
30690954.0000,0.0147,-0.0186,9.8200,0.0018,0.0011,-0.0001,27.7300
30713954.0000,0.0047,0.0214,9.8000,0.0018,0.0011,-0.0001,27.8200
30736954.0000,-0.0053,-0.0486,9.7600,0.0018,0.0011,-0.0001,27.6400
30759954.0000,-0.0353,0.0114,9.8100,0.0018,0.0011,-0.0001,27.7300
30782954.0000,-0.0253,0.0114,9.7700,0.0018,0.0011,-0.0001,27.6800
30805954.0000,0.0147,0.0014,9.8100,0.0018,0.0011,-0.0001,27.5900
30828954.0000,0.0147,-0.0286,9.8700,0.0018,0.0011,-0.0001,27.6400
30851954.0000,0.0047,-0.0086,9.7600,0.0018,0.0011,-0.0001,27.6400
30874954.0000,0.0847,0.0114,9.8000,0.0018,0.0011,-0.0001,27.6400
30897954.0000,0.0747,0.0114,9.8500,0.0018,0.0011,-0.0001,27.6400
30920954.0000,-0.0253,0.0314,9.8500,-0.0082,-0.0089,-0.0001,27.7300
30943954.0000,-0.0553,-0.0686,9.7500,0.0018,-0.0089,-0.0001,27.6800
30966954.0000,-0.0053,0.0114,9.8100,-0.0082,0.0011,-0.0001,27.6800
30989953.0000,-0.0253,-0.0086,9.7900,0.0018,0.0011,-0.0001,27.7800
31012953.0000,-0.0353,-0.0686,9.8600,0.0018,-0.0089,-0.0001,27.7800
31035954.0000,-0.0053,-0.0386,9.8200,0.0018,0.0011,-0.0001,27.8200
31058954.0000,-0.0053,-0.0186,9.8100,-0.0082,0.0011,-0.0001,27.7300
31081954.0000,0.0447,-0.0186,9.8100,0.0018,0.0011,-0.0001,27.8200
31104954.0000,-0.0053,-0.0286,9.7400,-0.0082,0.0011,-0.0001,27.6400
31127954.0000,-0.0253,-0.0486,9.8300,0.0018,0.0011,-0.0001,27.6800
31150954.0000,0.0347,-0.0686,9.8200,-0.0082,0.0011,-0.0001,27.6800
31173954.0000,0.0047,-0.0286,9.8300,0.0018,0.0011,-0.0001,27.5900
31196953.0000,-0.0053,0.0314,9.7700,0.0018,0.0011,-0.0001,27.7800
31219954.0000,0.0047,-0.0086,9.7900,0.0018,0.0011,-0.0001,27.5900
31242954.0000,0.0147,0.0314,9.8500,-0.0082,0.0011,-0.0001,27.7300
31265954.0000,-0.0753,-0.0486,9.8400,0.0018,0.0011,-0.0001,27.6400
31288954.0000,-0.0053,0.0114,9.8000,0.0018,-0.0089,-0.0001,27.6400
31311954.0000,0.0147,-0.0086,9.8100,0.0018,-0.0089,-0.0001,27.7300
31334954.0000,-0.0353,0.0214,9.8800,-0.0082,0.0011,-0.0001,27.6800
31357954.0000,0.0047,-0.0286,9.8600,0.0018,0.0011,-0.0001,27.6800
31380953.0000,0.0347,0.0114,9.7400,0.0018,0.0011,-0.0001,27.7800
31403954.0000,0.0147,-0.0086,9.8100,0.0018,0.0011,-0.0001,27.6800
31426954.0000,-0.0553,-0.0186,9.8300,0.0018,0.0011,-0.0001,27.5900
31449954.0000,-0.0153,-0.0286,9.7900,0.0018,0.0011,-0.0001,27.7300
31472954.0000,0.0147,0.0114,9.8200,0.0018,0.0011,-0.0001,27.7300
31495954.0000,-0.0053,0.0414,9.8800,0.0018,-0.0089,-0.0001,27.6400
31518954.0000,0.0147,-0.0286,9.6900,0.0018,0.0011,-0.0001,27.6400
31541954.0000,0.0147,-0.0586,9.7500,0.0018,0.0011,-0.0001,27.7300
31564954.0000,0.0147,-0.0386,9.9100,0.0018,0.0011,0.0099,27.7300
31587954.0000,-0.0053,0.0314,9.7600,0.0018,0.0011,-0.0001,27.6800
31610954.0000,-0.0053,-0.0286,9.8300,0.0018,0.0011,-0.0001,27.6800
31633954.0000,0.0147,-0.0286,9.7700,0.0018,0.0011,-0.0001,27.7300
31656954.0000,0.0047,0.0014,9.8700,0.0018,0.0011,-0.0001,27.6400
31679954.0000,0.0547,-0.0186,9.7400,0.0018,0.0011,-0.0001,27.6400
31702954.0000,-0.0253,-0.0186,9.8300,0.0018,0.0011,-0.0001,27.6400
31725954.0000,0.0347,-0.0386,9.7900,0.0018,0.0011,-0.0001,27.7300
31748954.0000,0.0247,-0.0086,9.8300,-0.0082,0.0011,-0.0001,27.6800
31771953.0000,-0.0353,-0.0186,9.7500,0.0018,0.0011,-0.0001,27.7800
31794954.0000,-0.0053,0.0514,9.8000,-0.0082,-0.0089,-0.0001,27.6800
31817954.0000,-0.0053,-0.0386,9.8100,0.0018,0.0011,-0.0001,27.6800
31840954.0000,0.0147,0.0414,9.8200,-0.0082,0.0011,-0.0001,27.7300
31863954.0000,0.0247,-0.0486,9.8000,0.0018,0.0011,-0.0001,27.7300
31886954.0000,-0.0453,-0.0286,9.8200,0.0018,0.0011,-0.0001,27.7300
31909954.0000,-0.0053,-0.0086,9.7600,0.0018,0.0011,-0.0001,27.5400
31932954.0000,-0.0153,0.0214,9.8100,0.0018,-0.0089,-0.0001,27.6800
31955954.0000,0.0447,0.0114,9.8600,0.0018,0.0011,-0.0001,27.5900
31978954.0000,0.0247,-0.0486,9.8400,0.0018,0.0011,-0.0001,27.5900
32001954.0000,0.0147,-0.0486,9.7600,0.0018,0.0011,-0.0001,27.6800
32024954.0000,-0.0753,-0.0086,9.7900,0.0018,0.0011,-0.0001,27.6800
32047954.0000,-0.0253,0.0514,9.8000,0.0018,0.0011,-0.0001,27.7300
32070954.0000,0.0047,-0.0186,9.8300,0.0018,-0.0089,-0.0001,27.6400
32093954.0000,-0.0353,0.0314,9.8300,0.0018,0.0011,-0.0001,27.7300
32116954.0000,0.0047,0.0014,9.7400,0.0018,0.0011,-0.0001,27.6400
32139954.0000,0.0247,-0.0186,9.8500,0.0018,0.0011,-0.0001,27.6800
32162954.0000,-0.0453,-0.0086,9.7200,0.0018,0.0011,-0.0001,27.6800
32185954.0000,0.0247,-0.0386,9.8700,0.0018,0.0011,-0.0001,27.5900
32208954.0000,-0.0053,0.0014,9.7600,-0.0082,-0.0089,-0.0001,27.6800
32231954.0000,0.0147,-0.0286,9.8200,0.0018,0.0011,-0.0001,27.6400
32254954.0000,0.0447,0.0314,9.7800,0.0018,0.0011,-0.0001,27.7300
32277954.0000,0.0247,-0.0286,9.7700,0.0018,0.0011,-0.0001,27.6400
32300954.0000,-0.0153,-0.0586,9.7600,0.0018,0.0011,-0.0001,27.7300
32323954.0000,0.0047,0.0214,9.9200,0.0018,0.0011,-0.0001,27.7300
32346954.0000,0.0347,0.0314,9.8600,0.0018,0.0011,-0.0001,27.6400
32369953.0000,-0.0053,0.0514,9.7700,0.0018,0.0011,-0.0001,27.7800
32392954.0000,0.0247,0.0214,9.6700,-0.0082,0.0011,-0.0001,27.6800
32415954.0000,-0.0053,0.0414,9.7900,0.0018,0.0011,-0.0001,27.6800
32438954.0000,0.0447,-0.0386,9.8900,0.0018,-0.0089,-0.0001,27.6400
32461954.0000,0.0247,0.0014,9.8200,0.0018,0.0011,-0.0001,27.8200
32484954.0000,-0.0053,0.0414,9.8400,0.0018,0.0011,-0.0001,27.6400
32507954.0000,0.0347,0.0514,9.7800,0.0018,0.0011,-0.0001,27.7300
32530954.0000,-0.0253,0.0314,9.6600,0.0018,0.0011,0.0099,27.6800
32553954.0000,0.0147,0.0014,9.8100,0.0018,0.0011,-0.0001,27.5900
32576953.0000,-0.0353,-0.0086,9.8300,0.0018,0.0011,-0.0001,27.7800
32599954.0000,-0.0453,-0.0186,9.9200,0.0018,0.0011,-0.0001,27.6800
32622954.0000,0.0247,0.0614,9.7700,0.0018,0.0011,-0.0001,27.6800
32645954.0000,0.0447,-0.0286,9.8000,0.0018,0.0011,-0.0001,27.7300
32668954.0000,0.0347,-0.0186,9.7600,-0.0082,0.0011,-0.0001,27.7300
32691954.0000,0.0047,-0.0586,9.8300,0.0018,0.0011,-0.0001,27.7300
32714954.0000,0.0347,-0.0386,9.7600,0.0018,0.0011,-0.0001,27.7300
32737953.0000,0.0047,0.0314,9.7800,0.0018,0.0011,-0.0001,27.7800
32760954.0000,-0.0053,-0.0086,9.7300,0.0018,0.0011,-0.0001,27.6800
32783954.0000,0.0147,-0.0086,9.8000,0.0018,0.0011,-0.0001,27.5900
32806954.0000,0.0147,-0.0486,9.7900,0.0018,0.0011,-0.0001,27.6800
32829954.0000,-0.0453,-0.0486,9.8600,0.0018,0.0011,-0.0001,27.6800
32852954.0000,-0.0653,-0.0186,9.6900,0.0018,0.0011,-0.0001,27.6400
32875954.0000,0.0447,0.0114,9.7900,0.0018,-0.0089,-0.0001,27.6400
32898954.0000,0.0647,-0.0286,9.8400,0.0018,0.0011,-0.0001,27.8200
32921954.0000,-0.0353,0.0514,9.8000,0.0018,0.0011,-0.0001,27.8200
32944953.0000,-0.0053,0.0814,9.8600,-0.0082,0.0011,-0.0001,27.7800
32967953.0000,0.0047,0.0114,9.8200,0.0018,0.0011,-0.0001,27.7800
32990954.0000,-0.0353,0.0314,9.8600,0.0018,0.0011,-0.0001,27.6800
33013953.0000,-0.0153,0.0214,9.7400,0.0018,0.0011,-0.0001,27.7800
33036954.0000,-0.0053,0.0614,9.8400,-0.0082,0.0011,-0.0001,27.6400
33059954.0000,-0.0053,0.0414,9.8400,0.0018,0.0011,0.0099,27.6400
33082954.0000,0.0147,0.0614,9.7900,0.0018,0.0011,-0.0001,27.7300
33105954.0000,-0.0253,-0.0286,9.8800,0.0018,0.0011,-0.0001,27.6400
33128954.0000,-0.0353,0.0514,9.8300,-0.0082,0.0011,-0.0001,27.7300
33151954.0000,0.0647,-0.0286,9.8300,0.0018,0.0011,0.0099,27.7300
33174954.0000,0.0447,-0.0186,9.8500,0.0018,0.0011,-0.0001,27.6800
33197953.0000,0.0347,-0.0086,9.8200,0.0018,0.0011,-0.0001,27.7800
33220954.0000,0.0347,-0.0186,9.8300,-0.0082,0.0011,-0.0001,27.6800
33243954.0000,-0.0053,0.0014,9.8900,0.0018,0.0011,-0.0001,27.7300
33266954.0000,-0.0253,-0.0086,9.7500,0.0018,0.0011,-0.0001,27.6400
33289954.0000,-0.0653,0.0114,9.8500,-0.0082,0.0011,-0.0001,27.6400
33312954.0000,-0.0553,0.0214,9.7700,0.0018,0.0011,-0.0001,27.6400
33335954.0000,-0.0253,-0.0186,9.8600,-0.0082,0.0011,-0.0001,27.6800
33358954.0000,-0.0253,0.0214,9.7500,0.0018,0.0011,-0.0001,27.6800
33381954.0000,-0.0253,-0.0586,9.8100,0.0018,0.0011,-0.0001,27.6800
33404954.0000,-0.0853,0.0014,9.8500,0.0018,0.0011,-0.0001,27.6800
33427954.0000,0.0047,0.0314,9.7800,0.0018,0.0011,-0.0001,27.6800
33450954.0000,0.0347,0.0514,9.8000,0.0018,0.0011,-0.0001,27.7300
33473954.0000,-0.0053,0.0014,9.8100,0.0018,0.0011,-0.0001,27.7300
33496954.0000,0.0147,-0.0486,9.7300,0.0018,0.0011,-0.0001,27.6400
33519954.0000,-0.0153,0.0014,9.7900,-0.0082,0.0011,-0.0001,27.7300
33542954.0000,0.0347,-0.1086,9.7600,0.0018,0.0011,-0.0001,27.6800
33565954.0000,0.0747,-0.0086,9.7500,0.0018,0.0011,-0.0001,27.6800
33588954.0000,-0.0153,-0.0386,9.8000,0.0018,0.0011,-0.0001,27.6800
33611953.0000,0.0347,0.0114,9.7200,-0.0082,0.0011,-0.0001,27.7800
33634954.0000,0.0147,-0.0186,9.7700,0.0018,0.0011,-0.0001,27.7300
33657954.0000,0.0047,0.0114,9.7300,-0.0082,0.0011,-0.0001,27.6400
33680954.0000,0.0047,-0.0086,9.7800,0.0018,0.0011,-0.0001,27.7300
33703954.0000,0.0347,0.0214,9.8100,0.0018,0.0011,-0.0001,27.7300
33726954.0000,-0.0253,0.0314,9.8000,0.0018,0.0011,-0.0001,27.6400
33749954.0000,-0.0053,-0.0186,9.8300,0.0018,0.0011,-0.0001,27.6800
33772954.0000,-0.0053,-0.0086,9.7600,0.0018,0.0011,-0.0001,27.6800
33795954.0000,0.0047,-0.0386,9.7500,0.0018,0.0011,-0.0001,27.6800
33818954.0000,-0.0253,0.0114,9.7700,0.0018,0.0011,-0.0001,27.6800
33841954.0000,-0.0253,-0.0386,9.9300,0.0018,0.0011,-0.0001,27.6400
33864954.0000,0.0547,0.0514,9.7800,0.0018,0.0011,-0.0001,27.7300
33887954.0000,-0.0153,-0.0286,9.8800,0.0018,0.0011,-0.0001,27.7300
33910954.0000,0.0247,0.0414,9.7500,0.0018,-0.0089,-0.0001,27.8200
33933954.0000,-0.0253,0.0414,9.8700,0.0018,-0.0089,-0.0001,27.6400
33956954.0000,-0.0053,-0.0586,9.8700,0.0018,0.0011,-0.0001,27.7300
33979954.0000,-0.0153,-0.0586,9.7700,0.0018,0.0011,-0.0001,27.5900
34002954.0000,0.0247,-0.0286,9.8900,-0.0082,0.0011,-0.0001,27.6800
34025954.0000,-0.0153,-0.0086,9.8800,0.0018,0.0011,-0.0001,27.6800
34048954.0000,0.0047,-0.0386,9.8800,0.0018,0.0011,-0.0001,27.6400
34071954.0000,-0.0753,-0.0086,9.8200,0.0018,0.0011,-0.0001,27.6400
34094954.0000,-0.0153,0.0014,9.7600,0.0018,0.0011,-0.0001,27.6400
34117954.0000,-0.0053,0.0014,9.7400,0.0018,0.0011,-0.0001,27.7300
34140954.0000,0.0147,0.0214,9.7400,0.0018,0.0011,-0.0001,27.6800
34163953.0000,0.0647,-0.0086,9.7600,0.0018,0.0011,-0.0001,27.7800
34186954.0000,-0.0553,0.0114,9.8800,0.0018,0.0011,-0.0001,27.6800
34209954.0000,0.0247,0.0314,9.8500,0.0018,0.0011,-0.0001,27.6800
34232954.0000,0.0747,0.0214,9.8200,0.0018,0.0011,-0.0001,27.6800
34255954.0000,-0.0353,0.0214,9.8500,0.0018,0.0011,-0.0001,27.6400
34278954.0000,0.0447,-0.0086,9.8300,-0.0082,0.0011,-0.0001,27.7300
34301954.0000,0.0047,-0.0286,9.7600,0.0018,0.0011,-0.0001,27.7300
34324954.0000,-0.0053,-0.0086,9.7900,0.0018,0.0011,-0.0001,27.7300
34347954.0000,-0.0453,-0.0086,9.7800,0.0018,0.0011,-0.0001,27.6800
34370954.0000,-0.0053,0.0314,9.8100,0.0018,0.0011,-0.0001,27.6800
34393953.0000,0.0147,0.0514,9.9100,0.0018,0.0011,-0.0001,27.7800
34416954.0000,-0.0453,0.0114,9.8400,0.0018,0.0011,-0.0001,27.6800
34439954.0000,0.0247,0.0414,9.8700,0.0018,0.0011,-0.0001,27.7300
34462954.0000,0.0047,0.0514,9.7600,0.0018,0.0011,-0.0001,27.7300
34485954.0000,0.0147,-0.0186,9.7500,0.0018,0.0011,-0.0001,27.7300
34508954.0000,-0.0653,-0.0086,9.6900,0.0018,0.0011,-0.0001,27.7300
34531954.0000,-0.0153,0.0214,9.7500,0.0018,0.0011,-0.0001,27.7300
34554954.0000,0.0147,0.0214,9.8300,-0.0082,-0.0089,-0.0001,27.6800
34577954.0000,-0.0553,0.0414,9.7600,0.0018,0.0011,-0.0001,27.6800
34600954.0000,-0.0453,0.0214,9.8000,0.0018,-0.0089,-0.0001,27.6800
34623954.0000,-0.0253,-0.0686,9.7400,0.0018,0.0011,-0.0001,27.6800
34646954.0000,-0.0053,-0.0086,9.8100,0.0018,0.0011,-0.0001,27.6400
34669954.0000,0.0047,0.0214,9.7500,0.0018,0.0011,-0.0001,27.7300
34692954.0000,0.0447,-0.0086,9.8000,0.0018,-0.0089,-0.0001,27.6400
34715954.0000,0.0147,-0.0086,9.6800,-0.0082,0.0011,-0.0001,27.6400
34738954.0000,0.0047,-0.0086,9.8400,0.0018,0.0011,-0.0001,27.7300
34761954.0000,-0.0753,-0.0186,9.9200,0.0018,0.0011,-0.0001,27.7300
34784954.0000,-0.0453,0.0514,9.7900,0.0018,0.0011,-0.0001,27.6800
34807954.0000,0.0547,0.0214,9.7600,0.0018,-0.0089,-0.0001,27.6800
34830953.0000,-0.0053,-0.0286,9.8600,0.0018,0.0011,-0.0001,27.7800
34853954.0000,0.0147,-0.0686,9.8300,-0.0082,0.0011,0.0099,27.7300
34876954.0000,0.0647,0.0014,9.7400,-0.0082,0.0011,-0.0001,27.5400
34899954.0000,-0.0153,0.0014,9.9000,0.0018,0.0011,-0.0001,27.6400
34922954.0000,-0.0353,-0.0186,9.8200,0.0018,0.0011,-0.0001,27.6400
34945954.0000,0.0147,0.0414,9.8200,0.0018,0.0011,-0.0001,27.6800
34968954.0000,0.0047,-0.0086,9.8200,-0.0082,-0.0089,-0.0001,27.6800
34991953.0000,0.0347,-0.0286,9.7100,0.0018,0.0011,0.0099,27.7800
35014954.0000,0.0047,0.0014,9.8400,-0.0082,0.0011,-0.0001,27.6800
35037954.0000,0.0147,-0.0586,9.7700,0.0018,-0.0089,-0.0001,27.6400
35060954.0000,0.0147,-0.0086,9.7900,0.0018,-0.0089,-0.0001,27.7300
35083954.0000,-0.0353,-0.0086,9.8000,0.0018,0.0011,-0.0001,27.7300
35106954.0000,0.0247,-0.0186,9.8300,0.0018,0.0011,-0.0001,27.8200
35129954.0000,0.0547,0.0014,9.7400,-0.0082,0.0011,-0.0001,27.7300
35152954.0000,0.0147,-0.0386,9.8700,0.0018,0.0011,-0.0001,27.5900
35175954.0000,-0.0153,-0.0486,9.8200,0.0018,-0.0089,-0.0001,27.6800
35198954.0000,0.0047,-0.0286,9.7800,0.0018,0.0011,-0.0001,27.6800
35221954.0000,0.0047,-0.0386,9.8200,0.0018,0.0011,-0.0001,27.6800
35244954.0000,0.0247,-0.0186,9.7800,0.0018,-0.0089,-0.0001,27.6400
35267954.0000,-0.0453,0.0214,9.8300,0.0018,0.0011,-0.0001,27.6400
35290954.0000,0.0047,0.0414,9.8100,-0.0082,0.0011,-0.0001,27.6400
35313954.0000,0.0247,-0.0386,9.7300,-0.0082,0.0011,-0.0001,27.7300
35336954.0000,0.0047,-0.0586,9.9600,0.0018,0.0011,-0.0001,27.6800
35359953.0000,0.0247,-0.0886,9.8800,0.0018,0.0011,-0.0001,27.7800
35382954.0000,-0.0153,-0.0186,9.8600,0.0018,0.0011,-0.0001,27.6800
35405954.0000,0.0247,-0.0086,9.8200,-0.0082,0.0011,-0.0001,27.6800
35428954.0000,0.0547,0.0014,9.7400,0.0018,0.0011,-0.0001,27.5900
35451954.0000,0.0347,-0.0286,9.7400,0.0018,0.0011,-0.0001,27.6400
35474954.0000,-0.0153,-0.0686,9.8600,0.0018,0.0011,-0.0001,27.7300
35497954.0000,-0.0153,-0.0286,9.8100,-0.0082,0.0011,-0.0001,27.6400
35520954.0000,0.0547,-0.0186,9.8200,0.0018,0.0011,-0.0001,27.6400
35543954.0000,0.0047,0.0514,9.7700,0.0018,0.0011,-0.0001,27.7300
35566954.0000,0.0347,-0.0086,9.8100,0.0018,0.0011,-0.0001,27.7300
35589954.0000,0.0347,0.0614,9.8300,-0.0082,0.0011,-0.0001,27.5900
35612954.0000,-0.0253,0.0114,9.8100,0.0018,0.0011,-0.0001,27.6800
35635954.0000,0.0347,-0.0086,9.7700,0.0018,-0.0089,-0.0001,27.6800
35658954.0000,-0.0153,-0.0186,9.8100,0.0018,0.0011,-0.0001,27.7300
35681954.0000,-0.0353,0.0114,9.8300,0.0018,0.0011,0.0099,27.7300
35704954.0000,-0.0353,-0.0086,9.8100,0.0018,0.0011,-0.0001,27.6400
35727954.0000,-0.0353,0.0014,9.8000,0.0018,0.0011,-0.0001,27.7300
35750953.0000,0.0647,-0.0086,9.9300,0.0018,0.0011,-0.0001,27.7800
35773954.0000,-0.0353,0.0214,9.8000,0.0018,0.0011,-0.0001,27.6800
35796954.0000,0.0147,-0.0586,9.8400,0.0018,0.0011,-0.0001,27.6800
35819954.0000,0.0147,-0.0186,9.8900,0.0018,0.0011,-0.0001,27.6800
35842954.0000,-0.0453,-0.0286,9.8300,0.0018,0.0011,-0.0001,27.7300
35865954.0000,-0.0353,0.0214,9.7700,0.0018,-0.0089,-0.0001,27.7300
35888954.0000,0.0047,-0.0886,9.7900,-0.0082,0.0011,-0.0001,27.6400
35911954.0000,0.0047,-0.0086,9.8300,0.0018,0.0011,-0.0001,27.7300
35934954.0000,0.0247,-0.0186,9.8400,0.0018,0.0011,-0.0001,27.7300
35957954.0000,-0.0353,-0.0286,9.8900,0.0018,0.0011,-0.0001,27.6800
35980954.0000,-0.0253,0.0314,9.7600,0.0018,0.0011,-0.0001,27.6800
36003954.0000,-0.0753,0.0014,9.8700,0.0018,0.0011,-0.0001,27.6800
36026953.0000,0.0547,-0.0286,9.7700,-0.0082,0.0011,-0.0001,27.7800
36049954.0000,-0.0153,0.0114,9.6900,-0.0082,0.0011,-0.0001,27.6400
36072954.0000,-0.0053,0.0414,9.8000,0.0018,0.0011,-0.0001,27.7300
36095954.0000,-0.0253,-0.0686,9.7900,0.0018,0.0011,-0.0001,27.6400
36118954.0000,0.0147,-0.0086,9.8200,0.0018,0.0011,-0.0001,27.7300
36141954.0000,0.0247,0.0414,9.7600,-0.0082,0.0011,-0.0001,27.6800
36164954.0000,-0.0153,0.0714,9.7700,0.0018,0.0011,-0.0001,27.6800
36187954.0000,-0.0453,-0.0486,9.8800,0.0018,0.0011,-0.0001,27.6800
36210953.0000,0.0347,0.0114,9.7500,0.0018,0.0011,-0.0001,27.7800
36233954.0000,-0.0253,0.0314,9.8300,0.0018,0.0011,-0.0001,27.6800
36256954.0000,0.0247,0.0414,9.7300,0.0018,-0.0089,-0.0001,27.7300
36279954.0000,-0.0453,0.0314,9.9000,0.0018,0.0011,-0.0001,27.6400
36302954.0000,-0.0453,-0.0086,9.7800,-0.0082,0.0011,-0.0001,27.6400
36325954.0000,-0.0253,0.0014,9.8400,0.0018,0.0011,-0.0001,27.7300
36348954.0000,0.0647,0.0014,9.7900,0.0018,0.0011,-0.0001,27.7300
36371954.0000,0.0147,0.0514,9.7500,0.0018,-0.0089,-0.0001,27.6400
36394954.0000,-0.0053,0.0114,9.8500,0.0018,0.0011,-0.0001,27.6800
36417954.0000,0.0247,-0.0386,9.8700,0.0018,0.0011,-0.0001,27.6800
36440954.0000,-0.0153,-0.0086,9.9000,-0.0082,0.0011,-0.0001,27.6400
36463954.0000,-0.0353,-0.0186,9.7800,-0.0082,-0.0089,-0.0001,27.6400
36486954.0000,-0.0353,-0.0086,9.8800,-0.0082,0.0011,-0.0001,27.6400
36509954.0000,-0.0353,-0.0186,9.8200,0.0018,0.0011,-0.0001,27.6400
36532954.0000,0.0147,0.0114,9.9300,0.0018,0.0011,-0.0001,27.6400
36555953.0000,-0.0253,0.0414,9.8300,0.0018,0.0011,-0.0001,27.7800
36578954.0000,0.0547,0.0114,9.7800,0.0018,-0.0089,-0.0001,27.6800
36601954.0000,0.0347,-0.0586,9.8600,0.0018,-0.0089,-0.0001,27.6800
36624954.0000,-0.0453,-0.0186,9.8000,-0.0082,0.0011,-0.0001,27.6800
36647954.0000,-0.0253,-0.0186,9.8300,0.0018,0.0011,-0.0001,27.6400
36670954.0000,0.0047,-0.0386,9.7600,0.0018,0.0011,-0.0001,27.7300
36693954.0000,-0.0553,0.0114,9.9200,0.0018,0.0011,-0.0001,27.7300
36716954.0000,-0.0553,0.0214,9.7500,0.0018,0.0011,-0.0001,27.6400
36739954.0000,-0.0353,0.0014,9.8100,0.0018,0.0011,-0.0001,27.6800
36762954.0000,-0.0453,0.0714,9.7900,0.0018,-0.0089,-0.0001,27.6800
36785954.0000,0.0447,0.0414,9.8700,0.0018,-0.0089,-0.0001,27.6800
36808954.0000,-0.0053,-0.0486,9.8000,0.0018,0.0011,-0.0001,27.6800
36831953.0000,-0.0853,-0.0186,9.7700,0.0018,0.0011,-0.0001,27.7800
36854954.0000,-0.0453,0.0414,9.9300,0.0018,0.0011,-0.0001,27.6400
36877954.0000,0.0347,-0.0386,9.7100,-0.0082,-0.0089,-0.0001,27.7300
36900954.0000,0.0547,-0.0286,9.8400,-0.0082,0.0011,-0.0001,27.7300
36923954.0000,-0.0053,-0.0086,9.8200,0.0018,0.0011,-0.0001,27.7300
36946954.0000,-0.0553,-0.0386,9.8000,0.0018,0.0011,-0.0001,27.5900
36969954.0000,0.0447,-0.0386,9.7700,0.0018,0.0011,-0.0001,27.5900
36992953.0000,-0.0753,0.0314,9.8300,0.0018,0.0011,-0.0001,27.7800
37015954.0000,0.0247,0.0514,9.7600,0.0018,0.0011,-0.0001,27.6800
37038953.0000,-0.0253,0.0414,9.7700,0.0018,0.0011,-0.0001,27.7800
37061954.0000,0.0647,-0.0186,9.7400,-0.0082,0.0011,-0.0001,27.6400
37084954.0000,-0.0053,-0.0286,9.7600,0.0018,0.0011,-0.0001,27.7300
37107954.0000,-0.0353,-0.0186,9.7900,0.0018,0.0011,-0.0001,27.6400
37130954.0000,-0.0453,0.0014,9.8000,0.0018,0.0011,-0.0001,27.6400
37153954.0000,0.0247,0.0514,9.8100,-0.0082,0.0011,-0.0001,27.7300
37176954.0000,-0.0153,-0.0586,9.8500,-0.0082,0.0011,-0.0001,27.7300
37199954.0000,-0.0153,0.0814,9.8100,-0.0082,0.0011,-0.0001,27.6800
37222953.0000,-0.0153,-0.0186,9.8100,0.0018,0.0011,-0.0001,27.7800
37245954.0000,0.0247,0.0214,9.7700,0.0018,0.0011,-0.0001,27.7300
37268954.0000,0.0347,0.0014,9.7800,0.0018,0.0011,-0.0001,27.6400
37291954.0000,0.0047,-0.0086,9.8500,0.0018,0.0011,-0.0001,27.6400
37314954.0000,-0.0353,0.0214,9.7600,0.0018,0.0011,0.0099,27.7300
37337954.0000,0.0247,-0.0186,9.7400,0.0018,0.0011,-0.0001,27.6400
37360954.0000,0.0047,-0.0086,9.8100,0.0018,0.0011,-0.0001,27.5900
37383954.0000,-0.0453,-0.0786,9.7600,0.0018,0.0011,-0.0001,27.5900
37406954.0000,0.0247,-0.0286,9.8100,0.0018,0.0011,-0.0001,27.5900
37429954.0000,-0.0253,0.0114,9.8000,0.0018,0.0011,-0.0001,27.6800
37452954.0000,-0.0353,0.0614,9.7600,-0.0082,0.0011,-0.0001,27.7300
37475954.0000,-0.0153,0.0014,9.8700,0.0018,0.0011,-0.0001,27.7300
37498954.0000,0.0147,-0.0086,9.7800,0.0018,0.0011,-0.0001,27.5400
37521954.0000,-0.0253,0.0914,9.8000,0.0018,0.0011,-0.0001,27.6400
37544954.0000,-0.0253,-0.0086,9.7900,0.0018,0.0011,-0.0001,27.6800
37567954.0000,0.0447,-0.0086,9.9300,-0.0082,0.0011,-0.0001,27.6800
37590954.0000,0.0147,0.0014,9.7800,0.0018,0.0011,-0.0001,27.6800
37613954.0000,0.0147,0.0314,9.6700,0.0018,0.0011,-0.0001,27.6800
37636954.0000,0.0247,0.0114,9.8600,0.0018,0.0011,-0.0001,27.6800
37659954.0000,-0.0253,0.0414,9.7500,0.0018,0.0011,-0.0001,27.6400
37682954.0000,-0.0053,0.0914,9.9700,0.0018,0.0011,-0.0001,27.6400
37705954.0000,0.0147,0.0114,9.8500,0.0018,0.0011,-0.0001,27.7300
37728954.0000,0.0047,0.0414,9.8300,0.0018,0.0011,-0.0001,27.6400
37751954.0000,0.0547,-0.0086,9.8000,-0.0082,0.0011,-0.0001,27.6800
37774954.0000,-0.0453,0.0014,9.8400,0.0018,0.0011,-0.0001,27.6800
37797953.0000,-0.0653,0.0114,9.7500,0.0018,0.0011,-0.0001,27.7800
37820953.0000,-0.0453,-0.0086,9.8300,0.0018,0.0011,-0.0001,27.7800
37843954.0000,-0.0153,0.0014,9.8500,-0.0082,0.0011,-0.0001,27.7300
37866954.0000,-0.0253,0.0214,9.8100,-0.0082,0.0011,-0.0001,27.7300
37889954.0000,0.0347,0.0514,9.7300,0.0018,0.0011,-0.0001,27.6400
37912954.0000,0.0547,0.0814,9.8500,0.0018,0.0011,-0.0001,27.7300
37935954.0000,0.0347,-0.0486,9.7600,0.0018,0.0011,-0.0001,27.7300
37958954.0000,-0.0553,-0.0086,9.7800,0.0018,0.0011,-0.0001,27.6400
37981953.0000,-0.0253,-0.0286,9.8000,0.0018,-0.0089,-0.0001,27.7800
38004953.0000,0.0147,-0.0586,9.7600,-0.0082,0.0011,-0.0001,27.7800
38027953.0000,0.0147,0.0414,9.8700,0.0018,0.0011,-0.0001,27.7800
38050954.0000,0.0347,0.0514,9.8600,-0.0082,0.0011,-0.0001,27.6400
38073954.0000,0.0347,-0.0086,9.8300,0.0018,0.0011,-0.0001,27.7300
38096954.0000,-0.0053,0.0114,9.9000,-0.0082,-0.0089,-0.0001,27.6400
38119954.0000,0.0047,-0.0186,9.7000,0.0018,0.0011,-0.0001,27.8200
38142954.0000,0.0347,0.0214,9.7600,-0.0082,0.0011,-0.0001,27.6800
38165954.0000,0.0047,-0.0186,9.8000,0.0018,0.0011,-0.0001,27.5900
38188953.0000,0.0547,-0.0086,9.8300,0.0018,0.0011,-0.0001,27.7800
38211953.0000,0.0047,-0.0186,9.8000,0.0018,0.0011,-0.0001,27.7800
38234953.0000,-0.0953,0.0714,9.7600,0.0018,0.0011,-0.0001,27.7800
38257954.0000,-0.0353,0.0714,9.7900,0.0018,0.0011,-0.0001,27.7300
38280954.0000,0.0247,0.0014,9.7800,-0.0082,0.0011,-0.0001,27.7300
38303954.0000,-0.0153,0.0314,9.7600,0.0018,0.0011,-0.0001,27.6400
38326954.0000,0.0047,-0.0086,9.7800,0.0018,0.0011,-0.0001,27.7300
38349954.0000,-0.0053,-0.0386,9.7800,-0.0082,-0.0089,-0.0001,27.6800
38372953.0000,0.0047,0.0014,9.7300,0.0018,0.0011,-0.0001,27.7800
38395953.0000,-0.0153,0.0214,9.7700,0.0018,0.0011,-0.0001,27.7800
38418953.0000,-0.0353,-0.0486,9.8700,0.0018,0.0011,-0.0001,27.7800
38441954.0000,0.0547,0.0214,9.8100,0.0018,0.0011,-0.0001,27.5900
38464954.0000,0.0847,0.0114,9.7900,0.0018,0.0011,-0.0001,27.6400
38487954.0000,0.0247,0.0614,9.9000,0.0018,0.0011,-0.0001,27.6400
38510954.0000,-0.0453,-0.0086,9.6700,0.0018,0.0011,-0.0001,27.6400
38533954.0000,-0.0253,0.0414,9.8500,-0.0082,-0.0089,-0.0001,27.6400
38556954.0000,-0.0053,-0.0386,9.7600,0.0018,0.0011,-0.0001,27.6800
38579954.0000,0.0047,0.0214,9.7900,0.0018,-0.0089,-0.0001,27.6800
38602954.0000,-0.0453,-0.0486,9.7800,-0.0082,0.0011,-0.0001,27.5900
38625954.0000,-0.0453,0.0014,9.7300,-0.0082,0.0011,-0.0001,27.6800
38648954.0000,-0.0153,0.0314,9.7400,0.0018,0.0011,-0.0001,27.6400
38671954.0000,0.0347,0.0314,9.9800,0.0018,0.0011,-0.0001,27.7300
38694954.0000,-0.0353,-0.0486,9.7300,0.0018,0.0011,-0.0001,27.6400
38717954.0000,-0.0353,0.0114,9.7200,0.0018,0.0011,-0.0001,27.7300
38740954.0000,0.0047,-0.0386,9.7700,0.0018,0.0011,-0.0001,27.6400
38763954.0000,0.0047,0.0014,9.8200,0.0018,0.0011,-0.0001,27.7300
38786954.0000,-0.0453,-0.0186,9.8100,0.0018,0.0011,-0.0001,27.6800
38809954.0000,-0.0053,-0.0286,9.7700,0.0018,0.0011,-0.0001,27.6800
38832954.0000,-0.0053,0.0114,9.8900,-0.0082,0.0011,-0.0001,27.6800
38855954.0000,-0.0253,-0.0186,9.7900,0.0018,0.0011,-0.0001,27.6400
38878954.0000,0.0247,0.0614,9.8800,0.0018,0.0011,-0.0001,27.7300
38901954.0000,-0.0553,0.0314,9.7900,0.0018,0.0011,-0.0001,27.7300
38924954.0000,-0.0153,0.0514,9.8300,-0.0082,-0.0089,-0.0001,27.7300
38947953.0000,0.0047,-0.0486,9.8400,0.0018,0.0011,-0.0001,27.7800
38970954.0000,0.0047,0.0414,9.8100,0.0018,0.0011,-0.0001,27.6800
38993954.0000,-0.0453,0.0414,9.7700,0.0018,0.0011,-0.0001,27.5900
39016953.0000,-0.0853,0.0314,9.8600,-0.0082,0.0011,-0.0001,27.7800
39039954.0000,0.0447,0.0314,9.8200,-0.0082,0.0011,-0.0001,27.6800
39062954.0000,-0.0353,-0.0286,9.7900,0.0018,0.0011,-0.0001,27.6400
39085954.0000,0.0147,0.0014,9.7900,0.0018,-0.0089,-0.0001,27.6400
39108954.0000,0.0147,-0.0186,9.9000,0.0018,0.0011,-0.0001,27.7300
39131954.0000,-0.0153,-0.0586,9.7100,0.0018,0.0011,-0.0001,27.6400
39154954.0000,-0.0653,0.0114,9.7200,0.0018,0.0011,-0.0001,27.6800
39177954.0000,0.0047,0.0314,9.9100,0.0018,0.0011,-0.0001,27.6800
39200954.0000,0.0147,0.0014,9.8400,0.0018,0.0011,-0.0001,27.6800
39223954.0000,0.0247,0.0214,9.9000,0.0018,0.0011,-0.0001,27.6800
39246954.0000,0.0047,0.0514,9.8400,0.0018,0.0011,-0.0001,27.6400
39269954.0000,0.0247,0.0414,9.7400,0.0018,0.0011,-0.0001,27.7300
39292954.0000,-0.0253,0.0414,9.8600,0.0018,0.0011,-0.0001,27.7300
39315954.0000,0.0147,-0.0286,9.7300,0.0018,0.0011,-0.0001,27.6400
39338954.0000,0.0147,0.0014,9.8300,0.0018,0.0011,-0.0001,27.6400
39361954.0000,0.0247,0.0114,9.8100,0.0018,0.0011,-0.0001,27.6800
39384953.0000,-0.0353,-0.0586,9.8600,0.0018,0.0011,-0.0001,27.7800
39407954.0000,-0.0053,-0.0686,9.7700,0.0018,0.0011,-0.0001,27.6800
39430954.0000,-0.0353,-0.0086,9.8300,0.0018,0.0011,-0.0001,27.6800
39453954.0000,0.0047,-0.0286,9.8600,0.0018,0.0011,-0.0001,27.6400
39476954.0000,-0.0053,-0.0086,9.8500,0.0018,0.0011,-0.0001,27.6400
39499954.0000,0.0147,-0.0086,9.8300,0.0018,0.0011,-0.0001,27.6400
39522954.0000,-0.0253,-0.0686,9.7700,-0.0082,0.0011,-0.0001,27.7300
39545954.0000,-0.0453,0.0314,9.8200,0.0018,-0.0089,-0.0001,27.6400
39568954.0000,0.0147,-0.0086,9.9600,0.0018,0.0011,-0.0001,27.7300
39591954.0000,0.0147,0.0414,9.9100,0.0018,0.0011,-0.0001,27.6800
39614954.0000,-0.0153,0.0214,9.8900,-0.0082,0.0011,-0.0001,27.6800
39637954.0000,0.0247,0.0014,9.9400,0.0018,0.0011,-0.0001,27.6800
39660954.0000,0.0147,0.0214,9.8300,0.0018,-0.0089,-0.0001,27.7300
39683954.0000,0.0047,0.0514,9.7600,0.0018,0.0011,-0.0001,27.7300
39706954.0000,0.0147,0.0014,9.7700,0.0018,0.0011,-0.0001,27.7300
39729954.0000,0.0447,0.0214,9.7300,0.0018,0.0011,-0.0001,27.6400
39752954.0000,0.0147,-0.0486,9.8300,0.0018,0.0011,-0.0001,27.5900
39775954.0000,-0.0053,-0.0286,9.7300,0.0018,0.0011,-0.0001,27.6800
39798954.0000,-0.0353,-0.0086,9.7500,0.0018,0.0011,-0.0001,27.6800
39821954.0000,0.0647,0.0614,9.8100,0.0018,0.0011,-0.0001,27.6800
39844954.0000,0.0147,-0.0086,9.7400,0.0018,-0.0089,-0.0001,27.6800
39867954.0000,-0.0253,-0.0086,9.8900,-0.0082,0.0011,-0.0001,27.7300
39890954.0000,-0.0753,0.0114,9.7400,0.0018,0.0011,-0.0001,27.6400
39913954.0000,0.0047,-0.0586,9.9000,0.0018,0.0011,-0.0001,27.6400
39936954.0000,0.0147,-0.0186,9.7100,0.0018,0.0011,-0.0001,27.6400
39959954.0000,0.0147,-0.0586,9.8200,0.0018,0.0011,-0.0001,27.6800
39982954.0000,-0.0153,0.0114,9.8500,0.0018,0.0011,-0.0001,27.6800
40005953.0000,0.0447,0.0014,9.8600,0.0018,0.0011,-0.0001,27.7800
40028953.0000,0.0447,0.0114,9.8300,0.0018,0.0011,0.0099,27.7800
40051954.0000,-0.0053,0.0214,9.8900,0.0018,0.0011,-0.0001,27.7300
40074954.0000,-0.0353,-0.0086,9.9100,0.0018,-0.0089,-0.0001,27.6400
40097954.0000,0.0347,0.0114,9.8900,0.0018,0.0011,-0.0001,27.6400
40120954.0000,0.0347,0.0314,9.8000,0.0018,0.0011,-0.0001,27.6400
40143954.0000,0.0147,0.0114,9.7300,0.0018,-0.0089,-0.0001,27.6400
40166954.0000,0.0147,-0.0386,9.8400,0.0018,0.0011,-0.0001,27.6800
40189953.0000,0.0047,-0.0086,9.8100,0.0018,0.0011,-0.0001,27.7800
40212954.0000,-0.0253,0.0514,9.8300,0.0018,0.0011,-0.0001,27.6800
40235954.0000,-0.0253,0.0314,9.8000,0.0018,0.0011,-0.0001,27.6800
40258954.0000,-0.0353,0.0014,9.8900,0.0018,0.0011,-0.0001,27.7300
40281954.0000,0.0047,0.0314,9.8100,0.0018,0.0011,-0.0001,27.6400
40304954.0000,0.0047,0.0214,9.7300,0.0018,0.0011,-0.0001,27.7300
40327954.0000,-0.0253,0.0014,9.8400,0.0018,0.0011,-0.0001,27.6400
40350954.0000,0.0247,-0.0586,9.7100,0.0018,0.0011,-0.0001,27.7300
40373954.0000,0.0547,-0.1086,9.8200,0.0018,0.0011,-0.0001,27.6400
40396954.0000,-0.0453,-0.0086,9.7000,0.0018,0.0011,-0.0001,27.6800
40419954.0000,0.0047,-0.0086,9.8800,0.0018,0.0011,-0.0001,27.5900
40442954.0000,-0.0453,-0.0486,9.8300,0.0018,0.0011,-0.0001,27.6800
40465954.0000,0.0347,0.0014,9.8100,0.0018,-0.0089,-0.0001,27.7300
40488954.0000,-0.0553,0.0514,9.8300,0.0018,0.0011,-0.0001,27.7300
40511954.0000,0.0047,-0.0086,9.8600,0.0018,0.0011,0.0099,27.7300
40534954.0000,-0.0253,0.0114,9.8600,0.0018,0.0011,-0.0001,27.7300
40557954.0000,-0.0453,-0.0186,9.7700,0.0018,0.0011,-0.0001,27.6800
40580954.0000,0.0247,0.0314,9.8000,0.0018,0.0011,-0.0001,27.6800
40603953.0000,-0.0353,0.0014,9.8300,0.0018,0.0011,-0.0001,27.7800
40626954.0000,-0.0153,0.0014,9.7600,-0.0082,0.0011,-0.0001,27.6800
40649954.0000,0.0347,0.0014,9.8300,-0.0082,0.0011,-0.0001,27.6400
40672954.0000,0.0247,0.0214,9.7800,0.0018,0.0011,-0.0001,27.6400
40695954.0000,-0.0053,-0.0186,9.9100,0.0018,0.0011,-0.0001,27.6400
40718954.0000,0.0447,0.0314,9.8500,0.0018,0.0011,-0.0001,27.7300
40741954.0000,0.0047,-0.0686,9.7300,0.0018,0.0011,-0.0001,27.6400
40764954.0000,-0.0253,0.0514,9.8000,0.0018,0.0011,-0.0001,27.6800
40787954.0000,-0.0453,-0.0386,9.7500,0.0018,0.0011,-0.0001,27.6800
40810954.0000,-0.0053,0.0214,9.8000,-0.0082,0.0011,-0.0001,27.6800
40833954.0000,-0.0053,0.0514,9.8500,-0.0082,0.0011,-0.0001,27.6800
40856954.0000,0.0447,-0.0086,9.9000,0.0018,0.0011,-0.0001,27.7300
40879954.0000,-0.0153,-0.0386,9.8000,0.0018,0.0011,-0.0001,27.6400
40902954.0000,-0.0253,-0.0986,9.8600,0.0018,0.0011,-0.0001,27.7300
40925954.0000,0.0147,-0.0186,9.7700,-0.0082,0.0011,-0.0001,27.7300
40948954.0000,0.0147,0.0114,9.8000,0.0018,0.0011,-0.0001,27.7300
40971954.0000,0.0347,0.0514,9.7400,0.0018,0.0011,-0.0001,27.6800
40994954.0000,0.0247,0.0014,9.7900,-0.0082,0.0011,-0.0001,27.6800
41017954.0000,0.0547,0.0214,9.7800,-0.0082,0.0011,-0.0001,27.6800
41040954.0000,0.0047,0.0214,9.7500,0.0018,0.0011,-0.0001,27.6800
41063954.0000,0.0047,-0.0386,9.8200,0.0018,0.0011,-0.0001,27.7300
41086954.0000,0.0047,-0.0286,9.9400,0.0018,0.0011,-0.0001,27.7300
41109954.0000,-0.0453,-0.0086,9.8000,0.0018,0.0011,-0.0001,27.7300
41132954.0000,-0.0153,0.0114,9.8500,0.0018,0.0011,-0.0001,27.7300
41155954.0000,-0.0253,-0.0886,9.7900,0.0018,-0.0089,-0.0001,27.7300
41178954.0000,-0.0153,0.0114,9.7800,-0.0082,0.0011,-0.0001,27.6400
41201954.0000,0.0847,-0.0086,9.8100,0.0018,0.0011,-0.0001,27.6800
41224954.0000,-0.0653,0.0114,9.8100,0.0018,0.0011,-0.0001,27.6800
41247954.0000,0.0047,0.0314,9.8500,0.0018,-0.0089,-0.0001,27.6800
41270954.0000,-0.0053,-0.0086,9.8200,0.0018,0.0011,-0.0001,27.7300
41293954.0000,0.0447,0.0114,9.7100,0.0018,0.0011,-0.0001,27.6400
41316954.0000,0.0047,0.0114,9.9200,0.0018,0.0011,-0.0001,27.6400
41339954.0000,-0.0453,0.0214,9.8700,0.0018,0.0011,-0.0001,27.7300
41362954.0000,-0.0153,0.0514,9.7600,0.0018,0.0011,-0.0001,27.6800
41385954.0000,-0.0253,0.0014,9.7400,-0.0082,0.0011,-0.0001,27.6800
41408954.0000,0.0047,-0.0786,9.8100,-0.0082,0.0011,-0.0001,27.6800
41431954.0000,-0.0153,-0.0086,9.8200,0.0018,0.0011,-0.0001,27.5900
41454954.0000,0.0347,0.0214,9.8500,-0.0082,0.0011,-0.0001,27.6400
41477954.0000,-0.0753,0.0014,9.8600,0.0018,0.0011,-0.0001,27.6400
41500954.0000,-0.0353,-0.0186,9.8800,0.0018,0.0011,-0.0001,27.5400
41523954.0000,-0.0253,0.0314,9.7200,0.0018,-0.0089,-0.0001,27.7300
41546954.0000,-0.0453,0.0314,9.7400,0.0018,-0.0089,-0.0001,27.7300
41569954.0000,-0.0153,0.0114,9.9100,0.0018,0.0011,-0.0001,27.6800
41592953.0000,-0.0253,0.0014,9.8900,-0.0082,0.0011,-0.0001,27.7800
41615954.0000,0.0247,0.0614,9.8300,0.0018,0.0011,-0.0001,27.6800
41638954.0000,-0.0353,-0.0086,9.7800,0.0018,0.0011,-0.0001,27.5900
41661954.0000,0.0047,-0.0286,9.7500,0.0018,-0.0089,-0.0001,27.7300
41684954.0000,-0.0453,0.0114,9.8100,0.0018,0.0011,-0.0001,27.7300
41707954.0000,-0.0353,0.0414,9.7500,0.0018,-0.0089,-0.0001,27.6400
41730954.0000,0.0547,-0.0086,9.8300,0.0018,0.0011,-0.0001,27.6400
41753954.0000,-0.0453,0.0214,9.8300,0.0018,0.0011,-0.0001,27.6800
41776954.0000,-0.0553,0.0514,9.7500,0.0018,0.0011,-0.0001,27.6800
41799954.0000,-0.0353,-0.0086,9.8800,0.0018,0.0011,-0.0001,27.6800
41822954.0000,0.0147,0.0114,9.8300,0.0018,0.0011,-0.0001,27.6800
41845954.0000,0.0147,0.0314,9.8300,0.0018,0.0011,-0.0001,27.6800
41868954.0000,-0.0253,0.0014,9.8500,0.0018,0.0011,-0.0001,27.7300
41891954.0000,0.0047,-0.0286,9.8100,0.0018,0.0011,-0.0001,27.7300
41914954.0000,0.0147,0.0014,9.7800,0.0018,0.0011,-0.0001,27.6400
41937954.0000,-0.0053,-0.0186,9.6200,0.0018,0.0011,-0.0001,27.7300
41960954.0000,0.0247,-0.0586,9.8400,0.0018,0.0011,-0.0001,27.7300
41983954.0000,-0.0153,-0.0686,9.8400,0.0018,0.0011,-0.0001,27.6400
42006953.0000,0.0047,-0.0086,9.8100,0.0018,0.0011,-0.0001,27.7800
42029954.0000,-0.0153,-0.0086,9.8300,0.0018,0.0011,-0.0001,27.5900
42052954.0000,0.0547,0.0314,9.7600,0.0018,0.0011,-0.0001,27.6400
42075954.0000,0.0147,0.0414,9.7900,0.0018,0.0011,-0.0001,27.6400
42098954.0000,0.0447,0.0014,9.8400,0.0018,0.0011,-0.0001,27.7300
42121954.0000,0.0247,0.0114,9.8500,0.0018,0.0011,-0.0001,27.6400
42144954.0000,0.0147,0.0714,9.7300,0.0018,0.0011,-0.0001,27.6400
42167954.0000,0.0147,-0.0486,9.8400,0.0018,-0.0089,-0.0001,27.6800
42190953.0000,-0.0053,-0.0186,9.8100,0.0018,0.0011,-0.0001,27.7800
42213954.0000,0.0247,0.0014,9.8100,0.0018,0.0011,-0.0001,27.6800
42236954.0000,0.0547,0.0114,9.7800,0.0018,0.0011,-0.0001,27.6800
42259954.0000,-0.0353,0.0614,9.8100,0.0018,0.0011,-0.0001,27.6400
42282954.0000,0.0047,0.0214,9.8100,0.0018,0.0011,-0.0001,27.7300
42305954.0000,-0.0553,0.0414,9.7500,-0.0082,0.0011,-0.0001,27.6400
42328954.0000,-0.0153,-0.0286,9.8900,0.0018,0.0011,-0.0001,27.7300
42351954.0000,0.0347,0.0114,9.8900,0.0018,0.0011,-0.0001,27.7300
42374954.0000,-0.0153,-0.0186,9.7900,-0.0082,0.0011,-0.0001,27.6800
42397954.0000,0.0147,0.0114,9.7700,-0.0082,0.0011,-0.0001,27.6800
42420954.0000,-0.0353,-0.0086,9.8700,0.0018,0.0011,-0.0001,27.6800
42443953.0000,-0.0053,-0.0486,9.8300,-0.0082,0.0011,-0.0001,27.7800
42466954.0000,-0.0253,0.0014,9.8500,0.0018,0.0011,-0.0001,27.7300
42489954.0000,-0.0453,-0.0186,9.7700,-0.0082,0.0011,-0.0001,27.6400
42512954.0000,0.0047,-0.0586,9.8100,0.0018,0.0011,-0.0001,27.6400
42535954.0000,0.0047,-0.0086,9.8400,0.0018,-0.0089,-0.0001,27.7300
42558953.0000,0.0247,0.0214,9.7900,0.0018,0.0011,-0.0001,27.7800
42581954.0000,0.0347,-0.0486,9.8500,0.0018,0.0011,-0.0001,27.6800
42604954.0000,0.0047,-0.0386,9.8400,0.0018,0.0011,-0.0001,27.6800
42627954.0000,0.0047,0.0614,9.7100,-0.0082,0.0011,-0.0001,27.5900
42650954.0000,-0.0053,-0.0286,9.8500,0.0018,0.0011,-0.0001,27.6800
42673954.0000,-0.0053,-0.0086,9.8300,-0.0082,0.0011,-0.0001,27.7300
42696954.0000,-0.0253,0.0914,9.8100,0.0018,0.0011,-0.0001,27.8200
42719954.0000,0.0247,-0.0186,9.8300,0.0018,0.0011,-0.0001,27.7300
42742954.0000,0.0147,0.0214,9.8800,0.0018,0.0011,-0.0001,27.5400
42765954.0000,-0.0453,-0.0086,9.8500,0.0018,0.0011,-0.0001,27.7300
42788954.0000,-0.0253,-0.0086,9.7200,0.0018,-0.0089,-0.0001,27.6400
42811954.0000,-0.0353,-0.0086,9.8300,0.0018,0.0011,-0.0001,27.5900
42834954.0000,-0.0053,0.0314,9.8900,0.0018,-0.0089,-0.0001,27.6800
42857954.0000,0.0847,-0.0286,9.7600,-0.0082,0.0011,-0.0001,27.6400
42880954.0000,0.0147,0.0214,9.8300,-0.0082,0.0011,-0.0001,27.7300
42903954.0000,0.0047,0.0314,9.8100,0.0018,0.0011,-0.0001,27.7300
42926954.0000,-0.0053,-0.0386,9.7800,0.0018,0.0011,-0.0001,27.6400
42949954.0000,-0.0353,0.0114,9.8000,-0.0082,0.0011,-0.0001,27.6400
42972953.0000,0.0247,0.0114,9.8100,-0.0082,0.0011,-0.0001,27.7800
42995953.0000,0.0147,0.0114,9.7900,0.0018,0.0011,-0.0001,27.7800
43018954.0000,0.0047,0.0514,9.7700,0.0018,0.0011,-0.0001,27.6800
43041954.0000,-0.0153,-0.0186,9.8200,0.0018,0.0011,-0.0001,27.5900
43064954.0000,-0.0453,-0.0086,9.8400,0.0018,0.0011,-0.0001,27.6400
43087954.0000,-0.0153,-0.0586,9.7900,0.0018,0.0011,-0.0001,27.6400
43110954.0000,0.0247,0.0114,9.8100,0.0018,0.0011,-0.0001,27.6400
43133954.0000,0.0547,0.0114,9.8300,0.0018,0.0011,-0.0001,27.6400
43156953.0000,-0.0153,-0.0186,9.8100,0.0018,0.0011,-0.0001,27.7800
43179954.0000,0.0147,-0.0086,9.9100,0.0018,0.0011,-0.0001,27.6800
43202954.0000,0.0047,0.0414,9.8000,0.0018,-0.0089,-0.0001,27.6800
43225954.0000,0.0147,0.0514,9.8800,-0.0082,0.0011,-0.0001,27.6800
43248954.0000,-0.0653,-0.0086,9.8000,0.0018,0.0011,-0.0001,27.5900
43271954.0000,-0.0453,-0.0486,9.8400,0.0018,-0.0089,-0.0001,27.7300
43294954.0000,0.0047,0.0114,9.7800,0.0018,0.0011,-0.0001,27.7300
43317954.0000,0.0147,0.0014,9.7800,0.0018,0.0011,-0.0001,27.7300
43340954.0000,0.0147,0.0114,9.8100,0.0018,-0.0089,-0.0001,27.7300
43363954.0000,-0.0053,-0.0086,9.8000,0.0018,0.0011,-0.0001,27.6800
43386953.0000,0.0447,-0.0186,9.8400,0.0018,0.0011,-0.0001,27.7800
43409954.0000,-0.0353,-0.0586,9.8200,0.0018,0.0011,-0.0001,27.5900
43432954.0000,-0.0053,0.0214,9.7800,0.0018,0.0011,-0.0001,27.6800
43455954.0000,0.0147,-0.0286,9.8500,0.0018,0.0011,-0.0001,27.6400
43478954.0000,0.0347,-0.0086,9.8400,0.0018,0.0011,-0.0001,27.7300
43501954.0000,-0.0453,0.0214,9.8600,0.0018,0.0011,-0.0001,27.7300
43524954.0000,-0.0053,-0.0086,9.8000,0.0018,-0.0089,-0.0001,27.6400
43547954.0000,-0.0253,-0.0186,9.7900,0.0018,0.0011,-0.0001,27.6400
43570954.0000,0.0247,0.0014,9.7400,0.0018,0.0011,-0.0001,27.6400
43593954.0000,-0.0053,0.0014,9.7900,0.0018,-0.0089,-0.0001,27.6800
