Time (us),AccelX (m/s^2),AccelY (m/s^2),AccelZ (m/s^2),GyroX (rad/s),GyroY (rad/s),GyroZ (rad/s),Temp (C)
1871962.0000,-0.0575,-0.0182,9.7769,-0.0091,0.0052,0.0000,22.7400
1894962.0000,-0.0175,0.0618,9.7169,0.0009,0.0052,0.0000,22.6900
1917962.0000,0.0425,0.0018,9.8169,0.0009,0.0052,0.0000,22.6000
1940962.0000,0.0225,0.0118,9.8169,0.0009,-0.0048,0.0000,22.6900
1963962.0000,0.0225,0.0118,9.7269,0.0009,-0.0048,0.0000,22.6900
1986962.0000,0.0525,0.0018,9.7569,0.0009,0.0052,0.0000,22.6500
2009962.0000,0.0125,0.0218,9.8369,0.0009,-0.0048,0.0000,22.6500
2032962.0000,-0.0175,0.0018,9.8169,0.0009,-0.0048,0.0000,22.7400
2055962.0000,-0.0275,0.0218,9.7469,0.0009,0.0052,0.0000,22.6500
2078962.0000,-0.0475,0.0118,9.8469,0.0009,-0.0048,0.0000,22.6000
2101962.0000,0.0525,0.0118,9.8469,-0.0091,-0.0048,0.0000,22.6000
2124962.0000,0.0425,0.0418,9.8369,0.0009,-0.0048,0.0000,22.6900
2147962.0000,0.0325,0.0118,9.8169,0.0009,-0.0048,0.0000,22.6900
2170962.0000,0.0725,-0.0782,9.7569,0.0009,0.0052,0.0000,22.7400
2193962.0000,-0.0375,0.0018,9.7869,0.0009,-0.0048,0.0000,22.6500
2216962.0000,-0.0275,0.1018,9.8769,0.0009,-0.0048,0.0000,22.6500
2239962.0000,-0.0275,-0.0682,9.7269,0.0009,-0.0048,0.0000,22.6500
2262962.0000,0.0025,-0.0082,9.7869,0.0009,0.0052,0.0000,22.7900
2285962.0000,-0.0275,-0.0582,9.7069,0.0009,-0.0048,0.0000,22.6900
2308962.0000,0.0125,0.0318,9.7569,-0.0091,-0.0048,0.0000,22.6900
2331962.0000,0.0325,0.0118,9.7369,-0.0091,-0.0048,0.0000,22.6000
2354962.0000,0.0225,0.0618,9.9469,-0.0091,-0.0048,0.0000,22.6500
2377962.0000,0.0525,0.0018,9.8369,0.0009,0.0052,0.0000,22.6500
2400962.0000,-0.0275,0.0418,9.8569,0.0009,0.0052,0.0000,22.6500
2423962.0000,0.0025,-0.0082,9.8169,0.0009,-0.0048,0.0000,22.6500
2446962.0000,-0.0575,-0.0182,9.8769,0.0009,-0.0048,0.0000,22.6900
2469962.0000,0.0125,0.0118,9.8469,0.0009,-0.0048,0.0000,22.6900
2492962.0000,-0.0175,-0.0282,9.8069,0.0009,-0.0048,0.0000,22.6000
2515962.0000,-0.0675,0.0418,9.8169,0.0009,-0.0048,0.0000,22.6900
2538962.0000,0.0325,0.0018,9.8569,0.0009,-0.0048,0.0000,22.6900
2561962.0000,-0.0375,0.0218,9.7369,0.0009,-0.0048,0.0000,22.7400
2584962.0000,0.0025,0.0118,9.7769,0.0009,0.0052,0.0000,22.7400
2607962.0000,0.0625,0.0218,9.8069,0.0009,-0.0048,0.0000,22.6500
2630962.0000,-0.0075,-0.0682,9.8769,0.0009,-0.0048,0.0000,22.6900
2653962.0000,-0.0475,0.0618,9.8069,0.0009,-0.0048,0.0000,22.6900
2676962.0000,0.0225,0.0018,9.8269,0.0009,0.0052,0.0000,22.6000
2699962.0000,0.0125,-0.0882,9.7669,0.0009,0.0052,0.0000,22.6900
2722962.0000,0.0725,0.0118,9.7569,0.0009,-0.0048,0.0000,22.6500
2745962.0000,0.0325,0.0418,9.8369,0.0009,0.0052,0.0000,22.7400
2768962.0000,-0.0275,-0.0482,9.7369,0.0009,-0.0048,0.0000,22.6500
2791962.0000,-0.0075,0.0018,9.8269,0.0009,0.0052,0.0000,22.6500
2814962.0000,0.0425,0.0418,9.8269,0.0009,-0.0048,0.0000,22.6900
2837962.0000,0.0025,-0.0382,9.7469,0.0009,0.0052,0.0000,22.6000
2860962.0000,0.0025,0.0118,9.7369,0.0009,-0.0048,0.0000,22.7900
2883962.0000,-0.0075,-0.0082,9.7069,0.0009,-0.0048,0.0000,22.6900
2906962.0000,0.0025,-0.0182,9.7669,0.0009,0.0052,0.0000,22.6500
2929962.0000,-0.0575,-0.0182,9.7469,0.0009,0.0052,0.0000,22.6500
2952962.0000,-0.0275,0.0018,9.8669,0.0009,-0.0048,0.0000,22.6500
2975962.0000,0.0725,0.0118,9.6569,0.0009,0.0052,0.0000,22.6500
2998962.0000,-0.0275,-0.0382,9.8169,0.0009,-0.0048,0.0000,22.6900
3021962.0000,-0.0075,-0.0982,9.8269,0.0009,-0.0048,0.0000,22.6900
3044962.0000,0.0325,0.0418,9.8269,0.0009,0.0052,0.0000,22.6900
3067962.0000,-0.0075,-0.0282,9.8069,0.0009,-0.0048,0.0000,22.6900
3090962.0000,-0.0175,-0.0782,9.7269,0.0009,-0.0048,0.0000,22.6500
3113962.0000,-0.0175,-0.0082,9.7969,-0.0091,0.0052,0.0000,22.7400
3136962.0000,-0.0475,0.0218,9.7869,-0.0091,-0.0048,0.0000,22.6500
3159962.0000,0.0225,0.0118,9.8369,0.0009,-0.0048,0.0000,22.6500
3182962.0000,-0.0175,-0.0382,9.8069,0.0009,-0.0048,0.0000,22.6900
3205962.0000,-0.0375,0.0118,9.9169,0.0009,0.0052,0.0000,22.6900
3228962.0000,0.0425,0.0318,9.7669,0.0009,-0.0048,0.0000,22.6900
3251962.0000,0.0225,0.0018,9.7869,0.0009,-0.0048,0.0000,22.6900
3274962.0000,0.0625,-0.0082,9.8369,0.0009,-0.0048,0.0000,22.6000
3297962.0000,-0.1075,0.0518,9.9269,0.0009,0.0052,0.0000,22.7400
3320962.0000,0.0125,-0.0582,9.8269,0.0009,-0.0048,0.0000,22.6500
3343962.0000,-0.0375,-0.0282,9.7969,0.0009,-0.0048,0.0000,22.6500
3366962.0000,0.0325,0.0518,9.7869,0.0009,-0.0048,0.0000,22.6000
3389962.0000,-0.0175,-0.0682,9.7869,0.0009,0.0052,0.0000,22.6000
3412962.0000,-0.0275,0.0118,9.8269,0.0009,0.0052,0.0000,22.6900
3435962.0000,-0.0275,0.0018,9.7669,0.0009,0.0052,0.0000,22.6000
3458962.0000,-0.0475,-0.0782,9.8769,-0.0091,0.0052,0.0000,22.6500
3481962.0000,-0.0175,-0.0182,9.8869,0.0009,-0.0048,0.0000,22.7400
3504962.0000,0.0525,0.0218,9.8969,0.0009,-0.0048,0.0000,22.6500
3527962.0000,-0.0575,-0.0682,9.7869,0.0009,0.0052,0.0000,22.7400
3550962.0000,0.0025,0.0018,9.7869,0.0009,0.0052,0.0000,22.7900
3573962.0000,-0.0075,-0.0782,9.7769,0.0009,0.0052,0.0000,22.6000
3596962.0000,-0.0475,0.0018,9.7969,0.0009,-0.0048,0.0000,22.6900
3619962.0000,0.0025,-0.0282,9.7869,0.0009,-0.0048,0.0000,22.6900
3642962.0000,-0.0175,0.0218,9.8369,0.0009,0.0052,0.0000,22.6500
3665962.0000,-0.0075,-0.0482,9.8369,0.0009,0.0052,0.0000,22.6500
3688962.0000,-0.0275,-0.0482,9.8369,0.0009,0.0052,0.0000,22.6500
3711962.0000,-0.0175,-0.0282,9.8369,0.0009,0.0052,0.0000,22.6500
3734962.0000,0.0225,-0.0782,9.7869,0.0009,-0.0048,0.0000,22.6900
3757962.0000,-0.0275,0.0018,9.8869,0.0009,-0.0048,0.0000,22.6000
3780962.0000,-0.0375,0.0018,9.8069,0.0009,0.0052,0.0000,22.6900
3803962.0000,-0.0275,0.0618,9.6769,0.0009,0.0052,0.0000,22.6900
3826962.0000,-0.0275,-0.0382,9.7669,0.0009,-0.0048,0.0000,22.6500
3849962.0000,0.0025,-0.0382,9.8269,0.0009,0.0052,0.0000,22.6500
3872962.0000,0.0225,0.0318,9.7869,0.0009,0.0052,0.0000,22.6500
3895962.0000,0.0025,-0.0482,9.7669,0.0009,-0.0048,0.0000,22.7400
3918962.0000,0.0325,-0.0282,9.8469,0.0009,0.0052,0.0000,22.6000
3941962.0000,-0.0375,0.0218,9.8469,0.0009,-0.0048,0.0000,22.6900
3964962.0000,-0.0075,-0.0382,9.7969,0.0009,0.0052,0.0000,22.6900
3987962.0000,-0.0175,0.0218,9.7969,0.0009,-0.0048,0.0000,22.6900
4010962.0000,0.0125,0.0518,9.7769,0.0009,-0.0048,0.0000,22.6000
4033962.0000,0.0525,0.0418,9.7369,0.0009,-0.0048,0.0000,22.5500
4056962.0000,0.0025,0.0218,9.8969,0.0009,-0.0048,0.0000,22.6500
4079962.0000,-0.0175,0.0218,9.8269,0.0009,-0.0048,0.0000,22.6500
4102962.0000,0.0025,0.0418,9.7869,0.0009,-0.0048,0.0000,22.6900
4125962.0000,-0.0275,0.0518,9.7769,0.0009,-0.0048,0.0000,22.6900
4148962.0000,0.0425,-0.0882,9.7869,0.0009,-0.0048,0.0000,22.6900
4171962.0000,-0.0075,-0.0082,9.8569,0.0009,-0.0048,0.0000,22.6900
4194962.0000,-0.0375,-0.0382,9.9169,0.0009,0.0052,0.0000,22.7400
4217962.0000,-0.0375,0.0418,9.8569,0.0009,-0.0048,0.0000,22.7400
4240962.0000,-0.0275,-0.0182,9.8769,0.0009,-0.0048,0.0000,22.6500
4263962.0000,0.0325,-0.0282,9.7669,0.0009,0.0052,0.0000,22.7400
4286962.0000,-0.0575,-0.0382,9.7169,0.0009,-0.0048,0.0000,22.6900
4309962.0000,-0.0375,-0.0082,9.7369,0.0009,0.0052,0.0000,22.6900
4332962.0000,-0.0375,0.0518,9.8069,0.0009,-0.0048,0.0000,22.6900
4355962.0000,-0.0075,0.0118,9.7969,0.0009,0.0052,0.0000,22.6000
4378962.0000,-0.0175,-0.0282,9.8469,0.0009,-0.0048,0.0000,22.6500
4401962.0000,-0.0375,-0.0482,9.7969,0.0009,0.0052,0.0000,22.6500
4424962.0000,0.0325,0.0318,9.6569,0.0009,0.0052,0.0000,22.6500
4447962.0000,0.0325,0.0218,9.8269,0.0009,0.0052,0.0000,22.6500
4470962.0000,-0.0575,-0.0082,9.7569,0.0009,0.0052,0.0000,22.7900
4493962.0000,-0.0075,-0.0082,9.7969,0.0009,-0.0048,0.0000,22.6000
4516962.0000,0.0225,0.0118,9.7869,-0.0091,0.0052,0.0000,22.6900
4539962.0000,0.0825,0.0318,9.8269,0.0009,-0.0048,0.0000,22.6900
4562962.0000,0.0725,0.0018,9.8169,0.0009,-0.0048,0.0000,22.6500
4585962.0000,-0.0375,-0.0082,9.7869,0.0009,-0.0048,0.0000,22.7400
4608962.0000,-0.0275,0.0418,9.7069,0.0009,-0.0048,0.0000,22.7400
4631962.0000,-0.0175,-0.0582,9.8269,0.0009,-0.0048,0.0000,22.7400
4654962.0000,-0.0375,-0.0182,9.7469,0.0009,-0.0048,0.0000,22.6000
4677962.0000,-0.0275,-0.0182,9.7869,0.0009,0.0052,0.0000,22.6900
4700962.0000,-0.0575,0.0118,9.8969,0.0009,0.0052,0.0000,22.6900
4723962.0000,0.0125,-0.0382,9.7769,0.0009,-0.0048,0.0000,22.6900
4746962.0000,-0.0275,-0.0182,9.7669,0.0009,-0.0048,0.0000,22.6900
4769962.0000,0.0325,-0.0082,9.8769,0.0009,0.0052,0.0000,22.6500
4792962.0000,-0.0475,-0.0282,9.7769,0.0009,-0.0048,0.0000,22.6500
4815962.0000,0.0125,-0.0182,9.7669,0.0009,0.0052,0.0000,22.7400
4838962.0000,0.0125,-0.0082,9.8669,0.0009,0.0052,0.0000,22.6900
4861962.0000,0.0125,-0.0282,9.7969,0.0009,0.0052,0.0000,22.6900
4884962.0000,0.0125,-0.0282,9.7569,0.0009,0.0052,0.0000,22.6900
4907962.0000,-0.0375,-0.0182,9.7369,0.0009,0.0052,0.0000,22.6900
4930962.0000,0.0025,-0.0282,9.8269,-0.0091,-0.0048,0.0000,22.6500
4953962.0000,0.0225,0.0318,9.7769,0.0009,-0.0048,0.0000,22.6500
4976962.0000,-0.0375,0.0118,9.8369,0.0009,0.0052,0.0000,22.5500
4999962.0000,0.0225,-0.0182,9.8069,0.0009,0.0052,0.0000,22.7400
5022962.0000,0.0025,0.0118,9.8569,0.0009,-0.0048,0.0000,22.6900
5045962.0000,0.0025,-0.0082,9.8269,0.0009,-0.0048,0.0000,22.6000
5068962.0000,0.0025,-0.0182,9.8369,-0.0091,-0.0048,0.0000,22.6900
5091962.0000,0.0225,0.0318,9.7869,0.0009,0.0052,0.0000,22.6900
5114962.0000,-0.0075,-0.0082,9.7869,0.0009,-0.0048,0.0000,22.7400
5137962.0000,0.0025,-0.0382,9.7969,0.0009,-0.0048,0.0000,22.7400
5160962.0000,-0.0675,0.0318,9.7669,0.0009,-0.0048,0.0000,22.7400
5183962.0000,0.0025,0.0518,9.7069,0.0009,0.0052,0.0000,22.6500
5206962.0000,0.0125,-0.0182,9.7969,0.0009,0.0052,0.0000,22.6900
5229962.0000,-0.0075,-0.0182,9.7869,0.0009,-0.0048,0.0000,22.6900
5252962.0000,0.0425,0.0418,9.7969,0.0009,-0.0048,0.0000,22.6900
5275962.0000,-0.0475,-0.0182,9.7969,0.0009,-0.0048,0.0000,22.6900
5298962.0000,0.0325,-0.0882,9.8069,0.0009,0.0052,0.0000,22.7400
5321962.0000,0.0125,0.0218,9.8569,0.0009,0.0052,0.0000,22.7400
5344962.0000,0.0625,0.0318,9.8669,-0.0091,-0.0048,0.0000,22.6500
5367962.0000,0.0025,0.0018,9.7769,-0.0091,-0.0048,0.0000,22.7400
5390962.0000,-0.0075,0.0118,9.7969,0.0009,0.0052,0.0000,22.6900
5413962.0000,0.0425,-0.0182,9.7869,0.0009,0.0052,0.0000,22.6900
5436962.0000,-0.0575,-0.0082,9.8969,0.0009,-0.0048,0.0000,22.6900
5459962.0000,-0.0475,-0.0282,9.7769,0.0009,0.0052,0.0000,22.6900
5482962.0000,-0.0175,0.0018,9.8769,0.0009,-0.0048,0.0000,22.7900
5505962.0000,0.0125,0.0418,9.7869,0.0009,-0.0048,0.0000,22.6500
5528962.0000,0.0125,0.0518,9.7969,0.0009,-0.0048,0.0000,22.7400
5551962.0000,0.0125,-0.0382,9.7169,0.0009,-0.0048,0.0000,22.7400
5574962.0000,0.0125,0.0218,9.7869,0.0009,0.0052,0.0000,22.6900
5597962.0000,-0.0175,0.0318,9.8369,0.0009,0.0052,0.0000,22.7900
5620962.0000,-0.0375,0.0118,9.8269,0.0009,-0.0048,0.0000,22.6000
5643962.0000,0.0325,0.0318,9.8569,0.0009,-0.0048,0.0000,22.6900
5666962.0000,0.0125,-0.0182,9.7469,0.0009,0.0052,0.0000,22.6500
5689962.0000,-0.0275,0.0218,9.8169,0.0009,0.0052,0.0000,22.6500
5712962.0000,-0.0275,-0.0082,9.8369,0.0009,-0.0048,0.0000,22.6500
5735962.0000,-0.0075,-0.0182,9.8369,0.0009,-0.0048,0.0000,22.7400
5758962.0000,-0.0275,0.0118,9.8869,-0.0091,0.0052,0.0000,22.6900
5781962.0000,0.0125,0.0618,9.8169,0.0009,0.0052,0.0000,22.6900
5804962.0000,0.0425,-0.0082,9.8069,0.0009,-0.0048,0.0000,22.6900
5827962.0000,0.0025,0.0018,9.8369,0.0009,0.0052,0.0000,22.6500
5850962.0000,-0.0075,0.0318,9.8669,0.0009,-0.0048,0.0000,22.6500
5873962.0000,0.0325,0.0318,9.7669,0.0009,0.0052,0.0000,22.7400
5896962.0000,-0.0175,0.0318,9.8369,0.0009,0.0052,0.0000,22.6500
5919962.0000,0.0525,0.0118,9.7869,0.0009,-0.0048,0.0000,22.6900
5942962.0000,-0.0275,0.0318,9.8269,0.0009,-0.0048,0.0000,22.6900
5965962.0000,0.0125,-0.0082,9.7869,0.0009,0.0052,0.0000,22.6900
5988962.0000,-0.0175,0.0318,9.7869,0.0009,-0.0048,0.0000,22.6000
6011962.0000,-0.0275,-0.0582,9.7469,0.0009,0.0052,0.0000,22.7400
6034962.0000,0.0425,-0.0182,9.7769,0.0009,-0.0048,0.0000,22.7400
6057962.0000,-0.0075,0.0118,9.8169,0.0009,-0.0048,0.0000,22.6500
6080962.0000,0.0325,0.0318,9.8369,-0.0091,0.0052,0.0000,22.7400
6103962.0000,0.0125,0.0418,9.8069,-0.0091,0.0052,0.0000,22.6000
6126962.0000,0.0225,0.0318,9.6969,-0.0091,-0.0048,0.0000,22.6900
6149962.0000,-0.0475,-0.0282,9.8569,0.0009,-0.0048,0.0000,22.6900
6172962.0000,0.0125,-0.0182,9.8669,0.0009,0.0052,0.0000,22.6900
6195962.0000,0.0225,0.0218,9.8769,0.0009,0.0052,0.0000,22.6900
6218962.0000,0.0125,0.0418,9.8069,0.0009,0.0052,0.0000,22.6900
6241962.0000,0.0625,-0.0482,9.8369,0.0009,0.0052,0.0000,22.6500
6264962.0000,-0.0275,0.0618,9.9369,0.0009,0.0052,0.0000,22.6500
6287962.0000,0.0025,-0.0382,9.7569,0.0009,-0.0048,0.0000,22.6900
6310962.0000,0.0125,0.0818,9.8069,0.0009,-0.0048,0.0000,22.6900
6333962.0000,-0.0375,-0.0282,9.8469,0.0009,0.0052,0.0000,22.6900
6356962.0000,-0.0075,0.0318,9.8469,0.0009,0.0052,0.0000,22.6900
6379962.0000,0.0125,0.0018,9.8069,0.0009,0.0052,0.0000,22.6500
6402962.0000,0.0125,0.0318,9.8469,0.0009,-0.0048,0.0000,22.7400
6425962.0000,-0.0175,-0.0382,9.7969,0.0009,-0.0048,0.0000,22.8400
6448962.0000,0.0425,0.0318,9.8669,0.0009,0.0052,0.0000,22.7400
6471962.0000,-0.0275,0.0218,9.7769,0.0009,-0.0048,0.0000,22.6900
6494962.0000,0.0225,0.0118,9.7569,0.0009,0.0052,0.0000,22.7900
6517962.0000,0.0325,-0.0482,9.7669,-0.0091,0.0052,0.0000,22.6900
6540962.0000,0.0025,0.0518,9.7769,0.0009,0.0052,0.0000,22.7900
6563962.0000,0.0125,0.0018,9.8669,0.0009,0.0052,0.0000,22.7400
6586962.0000,0.0425,-0.0482,9.8469,0.0009,0.0052,0.0000,22.6500
6609962.0000,-0.0475,-0.0082,9.7869,0.0009,0.0052,0.0000,22.7400
6632962.0000,0.0225,-0.0082,9.8469,0.0009,-0.0048,0.0000,22.6500
6655962.0000,-0.0475,-0.0482,9.7769,0.0009,0.0052,0.0000,22.7900
6678962.0000,0.0425,-0.0182,9.8569,0.0009,-0.0048,0.0000,22.6900
6701962.0000,0.0125,-0.0182,9.8069,0.0009,-0.0048,0.0000,22.6900
6724962.0000,-0.0175,-0.0182,9.7869,0.0009,-0.0048,0.0000,22.6900
6747962.0000,0.0125,0.0018,9.7769,-0.0091,0.0052,0.0000,22.7400
6770962.0000,0.0425,0.0118,9.7969,0.0009,-0.0048,0.0000,22.6500
6793962.0000,0.0125,0.0018,9.8769,-0.0091,0.0052,0.0000,22.7400
6816962.0000,0.0125,-0.0082,9.7569,0.0009,0.0052,0.0000,22.7400
6839962.0000,-0.0175,0.0218,9.7969,0.0009,-0.0048,0.0000,22.6000
6862962.0000,0.0025,-0.0382,9.8269,0.0009,0.0052,0.0000,22.7900
6885962.0000,-0.0675,0.0318,9.8269,0.0009,-0.0048,0.0000,22.6900
6908962.0000,0.0125,0.0318,9.7769,0.0009,0.0052,0.0000,22.6900
6931962.0000,0.0625,-0.0382,9.8069,-0.0091,0.0052,0.0000,22.7900
6954962.0000,0.0225,0.0118,9.8169,0.0009,-0.0048,0.0000,22.6900
6977962.0000,0.0625,-0.0382,9.8269,0.0009,0.0052,0.0000,22.7400
7000962.0000,0.0225,0.0718,9.8769,0.0009,0.0052,0.0000,22.7400
7023962.0000,-0.0375,0.0518,9.8969,0.0009,-0.0048,0.0000,22.6900
7046962.0000,-0.0275,-0.0282,9.8369,0.0009,-0.0048,0.0000,22.6900
7069962.0000,0.0025,-0.0382,9.8069,0.0009,0.0052,0.0000,22.6900
7092962.0000,0.0225,0.0318,9.8469,0.0009,0.0052,0.0000,22.6900
7115962.0000,-0.0075,0.0218,9.7869,0.0009,-0.0048,0.0000,22.6500
7138962.0000,0.0025,0.0318,9.7969,0.0009,0.0052,0.0000,22.7400
7161962.0000,0.0125,-0.0682,9.8069,0.0009,-0.0048,0.0000,22.7400
7184962.0000,-0.0475,0.0118,9.8269,0.0009,-0.0048,0.0000,22.6500
7207962.0000,-0.0275,0.0218,9.8269,0.0009,-0.0048,0.0000,22.6900
7230962.0000,0.0125,-0.0282,9.7869,0.0009,-0.0048,0.0000,22.6900
7253962.0000,-0.0075,-0.0282,9.8369,0.0009,0.0052,0.0000,22.7900
7276962.0000,0.0125,0.0118,9.7969,-0.0091,-0.0048,0.0000,22.7900
7299962.0000,0.0325,-0.0182,9.8169,0.0009,0.0052,0.0000,22.6500
7322962.0000,-0.0175,0.0518,9.8369,0.0009,0.0052,0.0000,22.7400
7345962.0000,0.0125,-0.0082,9.7869,0.0009,0.0052,0.0000,22.6500
7368962.0000,0.0325,0.0818,9.8869,0.0009,0.0052,0.0000,22.7400
7391962.0000,0.0025,-0.0382,9.7769,0.0009,-0.0048,0.0000,22.7900
7414962.0000,-0.0075,-0.0082,9.8469,-0.0091,-0.0048,0.0000,22.7900
7437962.0000,-0.0175,-0.0182,9.7169,0.0009,-0.0048,0.0000,22.6900
7460962.0000,-0.0175,-0.0082,9.8169,0.0009,-0.0048,0.0000,22.6900
7483962.0000,0.0125,0.0018,9.8069,0.0009,-0.0048,0.0000,22.7400
7506962.0000,0.0025,0.0118,9.8269,0.0009,-0.0048,0.0000,22.7400
7529962.0000,-0.0175,0.0618,9.8569,0.0009,0.0052,0.0000,22.7400
7552962.0000,-0.0375,-0.0082,9.8669,0.0009,-0.0048,0.0000,22.6500
7575962.0000,-0.0575,0.0018,9.8169,0.0009,0.0052,0.0000,22.6900
7598962.0000,-0.0075,-0.0082,9.7969,0.0009,0.0052,0.0000,22.6900
7621962.0000,0.0025,-0.0082,9.7569,0.0009,-0.0048,0.0000,22.7900
7644962.0000,0.0025,0.0018,9.7969,0.0009,0.0052,0.0000,22.6900
7667962.0000,0.0025,-0.0282,9.8469,0.0009,0.0052,0.0000,22.7900
7690962.0000,-0.0275,0.0418,9.7669,0.0009,-0.0048,0.0000,22.6900
7713962.0000,0.0225,-0.0082,9.7169,-0.0091,-0.0048,0.0000,22.7400
7736962.0000,-0.0575,0.0318,9.8169,0.0009,-0.0048,0.0000,22.7400
7759962.0000,0.0325,-0.0082,9.7769,0.0009,0.0052,0.0000,22.7900
7782962.0000,0.0425,-0.0282,9.8469,0.0009,-0.0048,0.0000,22.6900
7805962.0000,0.0025,-0.0082,9.8269,0.0009,-0.0048,0.0000,22.7900
7828962.0000,-0.0175,-0.0182,9.8669,-0.0091,0.0052,0.0000,22.7900
7851962.0000,-0.0075,-0.0082,9.7769,0.0009,0.0052,0.0000,22.7400
7874962.0000,-0.0075,0.0118,9.8769,0.0009,0.0052,0.0000,22.6500
7897962.0000,-0.0075,0.0118,9.8169,0.0009,-0.0048,0.0000,22.7400
7920962.0000,-0.0075,0.0018,9.7769,-0.0091,-0.0048,0.0000,22.6500
7943962.0000,0.0025,-0.0182,9.7669,0.0009,0.0052,0.0000,22.6900
7966962.0000,0.0025,0.0118,9.8069,0.0009,-0.0048,0.0000,22.6900
7989962.0000,-0.0475,0.0418,9.7669,0.0009,0.0052,0.0000,22.6900
8012962.0000,-0.0375,0.0018,9.7969,0.0009,0.0052,0.0000,22.7900
8035962.0000,-0.0475,0.0418,9.9169,0.0009,0.0052,0.0000,22.7400
8058962.0000,0.0125,0.0018,9.8569,0.0009,-0.0048,0.0000,22.6500
8081962.0000,0.0225,-0.0282,9.8369,0.0009,-0.0048,0.0000,22.7400
8104962.0000,-0.0075,0.0018,9.8369,0.0009,0.0052,0.0000,22.7400
8127962.0000,0.0025,0.0218,9.7869,-0.0091,0.0052,0.0000,22.6900
8150962.0000,0.0125,0.0318,9.7769,0.0009,-0.0048,0.0000,22.6900
8173962.0000,0.0125,-0.0082,9.8169,0.0009,0.0052,0.0000,22.6900
8196962.0000,-0.0675,0.0118,9.8269,0.0009,0.0052,0.0000,22.6900
8219962.0000,-0.0575,-0.0382,9.8369,-0.0091,0.0052,0.0000,22.7400
8242962.0000,0.0025,-0.0282,9.7569,0.0009,0.0052,0.0000,22.6500
8265962.0000,0.0025,0.0318,9.7669,0.0009,0.0052,0.0000,22.6500
8288962.0000,-0.0075,-0.0282,9.8969,0.0009,-0.0048,0.0000,22.7400
8311962.0000,0.0425,-0.0182,9.7469,0.0009,0.0052,0.0000,22.7900
8334962.0000,0.0225,-0.0082,9.7769,0.0009,-0.0048,0.0000,22.7900
8357962.0000,0.0025,-0.0382,9.7869,0.0009,-0.0048,0.0000,22.6900
8380962.0000,-0.0375,0.0418,9.7869,0.0009,0.0052,0.0000,22.6900
8403962.0000,-0.0375,0.0218,9.8169,0.0009,0.0052,0.0000,22.6900
8426962.0000,-0.0375,-0.0282,9.7869,0.0009,0.0052,0.0000,22.6900
8449962.0000,0.0525,-0.0082,9.7569,-0.0091,-0.0048,0.0000,22.7400
8472962.0000,0.0025,-0.0282,9.7169,0.0009,-0.0048,0.0000,22.7400
8495962.0000,-0.0175,-0.0182,9.7369,0.0009,0.0052,0.0000,22.6900
8518962.0000,-0.0475,-0.0282,9.7869,0.0009,0.0052,0.0000,22.6000
8541962.0000,0.0025,-0.0082,9.8669,0.0009,-0.0048,0.0000,22.7900
8564962.0000,-0.0175,0.0418,9.7369,0.0009,-0.0048,0.0000,22.7900
8587962.0000,-0.0375,-0.0082,9.7869,0.0009,0.0052,0.0000,22.7400
8610962.0000,-0.0275,-0.0082,9.7469,0.0009,-0.0048,0.0000,22.7400
8633962.0000,0.0225,0.0518,9.8469,0.0009,-0.0048,0.0000,22.7400
8656962.0000,0.0225,-0.0182,9.7169,0.0009,0.0052,0.0000,22.7400
8679962.0000,-0.0175,-0.0482,9.8069,0.0009,0.0052,0.0000,22.6900
8702962.0000,-0.0175,0.0218,9.8469,0.0009,-0.0048,0.0000,22.7900
8725962.0000,0.0025,-0.0082,9.7769,0.0009,-0.0048,0.0000,22.6900
8748962.0000,0.0325,-0.0282,9.8969,0.0009,-0.0048,0.0000,22.7900
8771962.0000,0.0525,-0.1182,9.7269,0.0009,-0.0048,0.0000,22.7400
8794962.0000,0.0325,0.0918,9.7169,0.0009,0.0052,0.0000,22.7400
8817962.0000,-0.0375,0.0318,9.8569,0.0009,-0.0048,0.0000,22.8400
8840962.0000,0.0225,0.0118,9.7669,0.0009,0.0052,0.0000,22.7400
8863962.0000,0.0425,0.0518,9.7169,0.0009,-0.0048,0.0000,22.7900
8886962.0000,-0.0275,-0.0282,9.8269,0.0009,-0.0048,0.0000,22.6900
8909962.0000,0.0325,0.0318,9.7269,0.0009,0.0052,0.0000,22.7900
8932962.0000,0.0125,0.0318,9.8169,0.0009,-0.0048,0.0000,22.7900
8955962.0000,0.0225,-0.0282,9.8969,0.0009,0.0052,0.0000,22.7400
8978962.0000,0.0225,0.0218,9.7569,0.0009,-0.0048,0.0000,22.8400
9001962.0000,-0.0175,0.0218,9.8169,0.0009,0.0052,0.0000,22.7400
9024962.0000,0.0125,-0.0082,9.7269,0.0009,-0.0048,0.0000,22.7400
9047962.0000,0.0225,0.0118,9.8469,0.0009,-0.0048,0.0000,22.7900
9070962.0000,0.0325,-0.0082,9.7869,0.0009,-0.0048,0.0000,22.7900
9093962.0000,-0.0375,0.0218,9.8669,0.0009,-0.0048,0.0000,22.7900
9116962.0000,0.0225,0.0218,9.7469,0.0009,-0.0048,0.0000,22.7900
9139962.0000,0.0225,0.0418,9.8369,-0.0091,-0.0048,0.0000,22.6900
9162962.0000,0.0025,-0.0482,9.9069,0.0009,0.0052,0.0000,22.7900
9185962.0000,0.0525,-0.0782,9.8369,0.0009,-0.0048,0.0000,22.7400
9208962.0000,-0.0675,-0.0082,9.7369,0.0009,-0.0048,0.0000,22.6500
9231962.0000,-0.0175,-0.0182,9.7269,0.0009,0.0052,0.0000,22.6900
9254962.0000,0.0325,0.0318,9.7869,0.0009,0.0052,0.0000,22.7900
9277962.0000,0.0125,-0.0582,9.7569,0.0009,-0.0048,0.0000,22.7900
9300962.0000,-0.0075,-0.0082,9.7869,0.0009,-0.0048,0.0000,22.7900
9323962.0000,0.0425,-0.0382,9.7969,0.0009,0.0052,0.0000,22.7400
9346962.0000,0.0425,-0.0282,9.8369,0.0009,-0.0048,0.0000,22.7400
9369962.0000,0.0225,-0.0082,9.7869,0.0009,-0.0048,0.0000,22.7400
9392962.0000,0.0325,0.0018,9.7869,0.0009,0.0052,0.0000,22.7400
9415962.0000,-0.0275,0.0018,9.7169,0.0009,0.0052,0.0000,22.6900
9438962.0000,0.0025,-0.0082,9.7969,0.0009,-0.0048,0.0000,22.6900
9461962.0000,0.0125,-0.0082,9.8169,0.0009,0.0052,0.0000,22.6900
9484962.0000,-0.0275,-0.0382,9.8669,-0.0091,-0.0048,0.0000,22.7900
9507962.0000,0.0225,0.0318,9.8469,0.0009,0.0052,0.0000,22.6500
9530962.0000,-0.0075,-0.0382,9.8269,0.0009,-0.0048,0.0000,22.7400
9553962.0000,0.0125,-0.0182,9.8169,0.0009,0.0052,0.0000,22.7400
9576962.0000,-0.0375,0.0218,9.7669,0.0009,-0.0048,0.0000,22.7400
9599962.0000,0.0125,0.0218,9.7669,0.0009,0.0052,0.0000,22.7900
9622962.0000,0.0025,-0.0082,9.8269,0.0009,0.0052,0.0000,22.6900
9645962.0000,0.0025,-0.0582,9.8269,0.0009,0.0052,0.0000,22.7900
9668962.0000,-0.0275,0.0118,9.7169,-0.0091,0.0052,0.0000,22.7900
9691962.0000,0.0725,-0.0182,9.8669,0.0009,0.0052,0.0000,22.7400
9714962.0000,0.0425,-0.0282,9.8669,0.0009,-0.0048,0.0000,22.7400
9737962.0000,-0.0075,-0.0382,9.6969,0.0009,-0.0048,0.0000,22.7400
9760962.0000,-0.0175,0.0018,9.7969,0.0009,-0.0048,0.0000,22.7400
9783962.0000,-0.0175,0.0418,9.8769,0.0009,-0.0048,0.0000,22.7900
9806962.0000,0.0425,0.0118,9.8069,0.0009,-0.0048,0.0000,22.6900
9829962.0000,0.0325,-0.0282,9.8069,0.0009,0.0052,0.0000,22.7900
9852962.0000,0.0225,-0.0582,9.9069,0.0009,-0.0048,0.0000,22.6900
9875962.0000,0.0025,0.0118,9.8769,0.0009,-0.0048,0.0000,22.7900
9898962.0000,0.0325,0.0418,9.8769,0.0009,-0.0048,0.0000,22.6500
9921962.0000,-0.0175,0.0318,9.8069,0.0009,0.0052,0.0000,22.8400
9944962.0000,-0.0175,-0.0282,9.7469,0.0009,-0.0048,0.0000,22.7400
9967962.0000,0.0125,0.0218,9.7869,0.0009,-0.0048,0.0000,22.7900
9990962.0000,-0.0075,-0.0182,9.7869,0.0009,0.0052,0.0000,22.7900
10013962.0000,0.0025,-0.0282,9.7269,0.0009,-0.0048,0.0000,22.7900
10036962.0000,-0.0175,-0.0182,9.7969,0.0009,0.0052,0.0000,22.6900
10059962.0000,0.0925,-0.0182,9.8469,0.0009,0.0052,0.0000,22.8400
10082962.0000,0.0525,-0.0582,9.8369,0.0009,-0.0048,0.0000,22.7400
10105962.0000,-0.0375,-0.0282,9.8169,0.0009,-0.0048,0.0000,22.7400
10128962.0000,0.0025,-0.0082,9.8069,0.0009,0.0052,0.0000,22.7400
10151962.0000,-0.0175,0.0118,9.7569,0.0009,-0.0048,0.0000,22.6900
10174962.0000,0.0125,-0.0282,9.8669,0.0009,-0.0048,0.0000,22.6900
10197962.0000,-0.0075,-0.0082,9.7369,0.0009,-0.0048,0.0000,22.7900
10220962.0000,-0.0375,-0.0082,9.7669,0.0009,0.0052,0.0000,22.7900
10243962.0000,0.0425,-0.0282,9.8769,0.0009,0.0052,0.0000,22.8400
10266962.0000,-0.0375,-0.0182,9.7769,0.0009,-0.0048,0.0000,22.7400
10289962.0000,-0.0275,0.0018,9.8469,0.0009,-0.0048,0.0000,22.7400
10312962.0000,-0.0575,0.0618,9.8269,0.0009,-0.0048,0.0000,22.8400
10335962.0000,-0.0175,-0.0082,9.8969,0.0009,-0.0048,0.0000,22.7900
10358962.0000,-0.0075,0.0618,9.7869,0.0009,0.0052,0.0000,22.6900
10381962.0000,-0.0175,0.0318,9.7969,0.0009,-0.0048,0.0000,22.6900
10404962.0000,0.0025,0.0218,9.7969,0.0009,-0.0048,0.0000,22.7900
10427962.0000,-0.0275,-0.0582,9.7569,-0.0091,0.0052,0.0000,22.8400
10450962.0000,0.0025,0.0318,9.8369,0.0009,-0.0048,0.0000,22.7400
10473962.0000,0.0225,-0.0382,9.7969,0.0009,0.0052,0.0000,22.8400
10496962.0000,0.0325,0.0018,9.8369,0.0009,0.0052,0.0000,22.7400
10519962.0000,-0.0275,0.0118,9.8569,-0.0091,-0.0048,0.0000,22.7900
10542962.0000,0.0125,-0.0282,9.7769,-0.0091,-0.0048,0.0000,22.7900
10565962.0000,0.0725,0.0118,9.7769,0.0009,0.0052,0.0000,22.6900
10588962.0000,0.0425,0.0118,9.7769,0.0009,0.0052,0.0000,22.6900
10611962.0000,0.0325,-0.0282,9.8669,0.0009,-0.0048,0.0000,22.7900
10634962.0000,-0.0075,0.0118,9.7469,-0.0091,-0.0048,0.0000,22.6500
10657962.0000,-0.0475,0.0218,9.7669,0.0009,0.0052,0.0000,22.7400
10680962.0000,-0.0075,0.0018,9.7969,0.0009,0.0052,0.0000,22.7400
10703962.0000,-0.0575,-0.0682,9.7269,0.0009,-0.0048,0.0000,22.6900
10726962.0000,0.0225,-0.0082,9.7469,0.0009,0.0052,0.0000,22.6900
10749962.0000,0.0625,0.0518,9.8269,0.0009,0.0052,0.0000,22.6900
10772962.0000,-0.0075,0.0018,9.8369,0.0009,0.0052,0.0000,22.6900
10795962.0000,-0.0375,-0.0182,9.7669,0.0009,0.0052,0.0000,22.7400
10818962.0000,-0.0375,0.0018,9.8769,0.0009,-0.0048,0.0000,22.7400
10841962.0000,-0.0275,0.0118,9.8269,0.0009,-0.0048,0.0000,22.7400
10864962.0000,0.0025,-0.0582,9.8169,0.0009,-0.0048,0.0000,22.7400
10887962.0000,-0.0675,-0.0182,9.7969,0.0009,-0.0048,0.0000,22.6900
10910962.0000,0.0325,0.0218,9.7969,0.0009,-0.0048,0.0000,22.6900
10933962.0000,0.0025,-0.0782,9.8769,0.0009,-0.0048,0.0000,22.6900
10956962.0000,-0.0475,0.0018,9.8869,0.0009,0.0052,0.0000,22.7900
10979962.0000,0.0225,-0.0682,9.8569,0.0009,-0.0048,0.0000,22.7400
11002962.0000,0.0425,-0.0182,9.7769,0.0009,-0.0048,0.0000,22.7400
11025962.0000,-0.0175,-0.0082,9.8869,0.0009,0.0052,0.0000,22.7400
11048962.0000,-0.0075,-0.0482,9.8669,0.0009,0.0052,0.0000,22.7400
11071962.0000,-0.0175,0.0118,9.7269,0.0009,0.0052,0.0000,22.7900
11094962.0000,-0.0475,0.0118,9.8269,0.0009,-0.0048,0.0000,22.7900
11117962.0000,-0.0475,-0.0282,9.8869,0.0009,0.0052,0.0000,22.8800
11140962.0000,0.0225,0.0018,9.8069,-0.0091,-0.0048,0.0000,22.6900
11163962.0000,0.0625,0.0018,9.8069,0.0009,-0.0048,0.0000,22.7400
11186962.0000,-0.0175,-0.0182,9.8869,0.0009,0.0052,0.0000,22.7400
11209962.0000,0.0025,-0.0482,9.7869,0.0009,-0.0048,0.0000,22.8400
11232962.0000,-0.0075,0.0218,9.8169,-0.0091,-0.0048,0.0000,22.7400
11255962.0000,-0.0375,-0.0182,9.7769,0.0009,0.0052,0.0000,22.7900
11278962.0000,0.0325,0.0418,9.8469,0.0009,-0.0048,0.0000,22.7900
11301962.0000,-0.0375,0.0818,9.8169,0.0009,-0.0048,0.0000,22.6900
11324962.0000,0.0425,-0.0082,9.8269,0.0009,0.0052,0.0000,22.6900
11347962.0000,-0.0275,-0.0082,9.7669,0.0009,0.0052,0.0000,22.6900
11370962.0000,0.0125,0.0418,9.9069,0.0009,0.0052,0.0000,22.6500
11393962.0000,-0.0175,0.0118,9.7269,0.0009,-0.0048,0.0000,22.7400
11416962.0000,-0.0875,0.0918,9.8569,0.0009,-0.0048,0.0000,22.7400
11439962.0000,-0.0075,0.0218,9.8769,-0.0091,0.0052,0.0000,22.7900
11462962.0000,0.0025,-0.0182,9.8169,0.0009,-0.0048,0.0000,22.7900
11485962.0000,0.0525,-0.0482,9.7369,0.0009,-0.0048,0.0000,22.6900
11508962.0000,0.0325,-0.0082,9.8069,0.0009,-0.0048,0.0000,22.7900
11531962.0000,-0.0175,0.0218,9.7869,0.0009,0.0052,0.0000,22.7400
11554962.0000,-0.0175,0.0018,9.8269,-0.0091,-0.0048,0.0000,22.8400
11577962.0000,0.0525,-0.0082,9.8269,0.0009,0.0052,0.0000,22.7400
11600962.0000,0.0325,0.0118,9.8169,0.0009,0.0052,0.0000,22.8400
11623962.0000,-0.0375,-0.0082,9.8269,0.0009,0.0052,0.0000,22.6900
11646962.0000,-0.0175,0.0218,9.7569,0.0009,-0.0048,0.0000,22.6900
11669962.0000,0.0125,0.0218,9.8069,0.0009,0.0052,0.0000,22.6900
11692962.0000,0.0025,0.0118,9.8269,0.0009,0.0052,0.0000,22.6900
11715962.0000,0.0225,0.0718,9.7969,0.0009,-0.0048,0.0000,22.6500
11738962.0000,0.0425,0.0418,9.8369,0.0009,0.0052,0.0000,22.8400
11761962.0000,0.0125,-0.0382,9.8269,0.0009,0.0052,0.0000,22.7400
11784962.0000,0.0625,-0.0182,9.8269,0.0009,0.0052,0.0000,22.7400
11807962.0000,0.0025,0.0318,9.8369,0.0009,0.0052,0.0000,22.7900
11830962.0000,-0.0175,0.0318,9.8269,-0.0091,-0.0048,0.0000,22.6900
11853962.0000,0.0125,0.0018,9.7669,0.0009,-0.0048,0.0000,22.6900
11876962.0000,-0.0175,0.0218,9.6969,0.0009,-0.0048,0.0000,22.6900
11899962.0000,0.0225,-0.0382,9.8069,0.0009,-0.0048,0.0000,22.6500
11922962.0000,-0.0075,0.0218,9.7369,0.0009,-0.0048,0.0000,22.7400
11945962.0000,-0.0075,0.0018,9.8369,0.0009,-0.0048,0.0000,22.7400
11968962.0000,0.0325,0.0018,9.8569,-0.0091,-0.0048,0.0000,22.7400
11991962.0000,-0.0175,0.0318,9.6869,0.0009,0.0052,0.0000,22.6900
12014962.0000,0.0325,-0.0182,9.7469,0.0009,0.0052,0.0000,22.7900
12037962.0000,0.0825,-0.0482,9.8269,-0.0091,-0.0048,0.0000,22.8800
12060962.0000,-0.0575,-0.0382,9.7869,0.0009,0.0052,0.0000,22.6900
12083962.0000,0.0525,0.0218,9.7869,0.0009,0.0052,0.0000,22.7900
12106962.0000,-0.0275,0.0418,9.7569,-0.0091,-0.0048,0.0000,22.7400
12129962.0000,-0.0075,0.0018,9.8369,0.0009,-0.0048,0.0000,22.8400
12152962.0000,0.0325,-0.0282,9.8569,0.0009,-0.0048,0.0000,22.7400
12175962.0000,0.0125,0.0318,9.7369,0.0009,0.0052,0.0000,22.6900
12198962.0000,0.0525,-0.0082,9.8469,0.0009,-0.0048,0.0000,22.7900
12221962.0000,0.0025,-0.0082,9.7269,-0.0091,0.0052,0.0000,22.6900
12244962.0000,0.0025,0.0418,9.7469,0.0009,-0.0048,0.0000,22.7900
12267962.0000,0.0025,0.0518,9.7869,0.0009,-0.0048,0.0000,22.8400
12290962.0000,0.0025,0.0018,9.8269,0.0009,-0.0048,0.0000,22.7400
12313962.0000,0.0325,0.0118,9.7569,0.0009,-0.0048,0.0000,22.8400
12336962.0000,0.0225,-0.0382,9.7469,0.0009,0.0052,0.0000,22.6500
12359962.0000,0.0525,-0.0282,9.7669,0.0009,0.0052,0.0000,22.7900
12382962.0000,-0.0275,0.0418,9.7669,0.0009,0.0052,0.0000,22.7900
12405962.0000,0.0725,-0.0182,9.8469,0.0009,0.0052,0.0000,22.7900
12428962.0000,0.0225,-0.0182,9.7369,0.0009,-0.0048,0.0000,22.7900
12451962.0000,-0.0075,-0.0082,9.8669,0.0009,0.0052,0.0000,22.7400
12474962.0000,0.0225,0.0218,9.8369,0.0009,-0.0048,0.0000,22.7400
12497962.0000,0.0225,0.0418,9.7969,0.0009,0.0052,0.0000,22.8400
12520962.0000,-0.0275,-0.0182,9.8069,0.0009,0.0052,0.0000,22.6500
12543962.0000,0.0025,0.0318,9.8569,0.0009,0.0052,0.0000,22.7900
12566962.0000,0.0225,0.0118,9.8169,0.0009,0.0052,0.0000,22.7900
12589962.0000,-0.0775,-0.0182,9.7869,0.0009,-0.0048,0.0000,22.7900
12612962.0000,0.0025,0.0118,9.7669,0.0009,0.0052,0.0000,22.6900
12635962.0000,-0.0075,0.0418,9.7869,0.0009,0.0052,0.0000,22.7400
12658962.0000,0.0025,0.0318,9.8369,0.0009,-0.0048,0.0000,22.8400
12681962.0000,0.0125,0.0118,9.7769,0.0009,-0.0048,0.0000,22.7400
12704962.0000,0.0425,0.0418,9.7869,0.0009,0.0052,0.0000,22.8400
12727962.0000,0.0025,0.0118,9.8069,0.0009,0.0052,0.0000,22.6900
12750962.0000,-0.0175,-0.0382,9.8369,0.0009,0.0052,0.0000,22.7900
12773962.0000,-0.0375,-0.0182,9.7369,-0.0091,0.0052,0.0000,22.6900
12796962.0000,-0.0075,-0.0382,9.7469,0.0009,0.0052,0.0000,22.7900
12819962.0000,-0.0275,-0.0482,9.7269,0.0009,-0.0048,0.0000,22.8800
12842962.0000,0.0125,0.0018,9.7469,0.0009,-0.0048,0.0000,22.7400
12865962.0000,-0.0275,0.0518,9.7869,0.0009,0.0052,0.0000,22.7400
12888962.0000,0.0325,0.0218,9.8869,0.0009,0.0052,0.0000,22.7400
12911962.0000,-0.0075,0.0218,9.8169,0.0009,0.0052,0.0000,22.6900
12934962.0000,0.0125,-0.0082,9.8169,0.0009,-0.0048,0.0000,22.7900
12957962.0000,-0.0075,0.0018,9.8169,-0.0091,-0.0048,0.0000,22.6900
12980962.0000,-0.0075,0.0218,9.8669,0.0009,-0.0048,0.0000,22.8800
13003962.0000,0.0025,0.0218,9.8469,0.0009,0.0052,0.0000,22.8400
13026962.0000,-0.0375,0.0418,9.8469,0.0009,-0.0048,0.0000,22.6500
13049962.0000,0.0025,0.0018,9.7869,0.0009,0.0052,0.0000,22.6500
13072962.0000,-0.0875,-0.0082,9.7769,0.0009,-0.0048,0.0000,22.7400
13095962.0000,-0.0275,-0.0582,9.8369,0.0009,-0.0048,0.0000,22.7900
13118962.0000,0.1025,-0.0182,9.8169,-0.0091,-0.0048,0.0000,22.7900
13141962.0000,0.0125,0.0018,9.7669,-0.0091,-0.0048,0.0000,22.7900
13164962.0000,0.0125,-0.0182,9.7869,0.0009,-0.0048,0.0000,22.6900
13187962.0000,0.0125,-0.0382,9.8669,0.0009,0.0052,0.0000,22.7400
13210962.0000,0.0125,0.0318,9.8569,0.0009,0.0052,0.0000,22.7400
13233962.0000,-0.0375,-0.0382,9.8269,0.0009,-0.0048,0.0000,22.7400
13256962.0000,-0.0375,0.0518,9.7469,0.0009,-0.0048,0.0000,22.8400
13279962.0000,-0.0075,-0.0282,9.8369,0.0009,-0.0048,0.0000,22.7900
13302962.0000,0.0025,-0.0082,9.7969,0.0009,-0.0048,0.0000,22.7900
13325962.0000,0.0025,0.0018,9.7569,0.0009,-0.0048,0.0000,22.6900
13348962.0000,0.0025,-0.0282,9.8569,0.0009,-0.0048,0.0000,22.7900
13371962.0000,0.0125,0.0518,9.8169,0.0009,0.0052,0.0000,22.7400
13394962.0000,0.0225,0.0518,9.7769,-0.0091,-0.0048,0.0000,22.7400
13417962.0000,0.0225,-0.0182,9.7269,0.0009,-0.0048,0.0000,22.8400
13440962.0000,-0.0075,-0.0182,9.8369,0.0009,-0.0048,0.0000,22.7400
13463962.0000,0.0325,0.0618,9.7269,0.0009,-0.0048,0.0000,22.7900
13486962.0000,-0.0275,0.0118,9.8169,0.0009,-0.0048,0.0000,22.7900
13509962.0000,0.0125,0.0118,9.8369,0.0009,-0.0048,0.0000,22.6900
13532962.0000,0.0525,0.0418,9.8169,0.0009,0.0052,0.0000,22.7900
13555962.0000,-0.0075,0.0118,9.8469,0.0009,0.0052,0.0000,22.7900
13578962.0000,-0.0175,-0.0182,9.8069,0.0009,0.0052,0.0000,22.8400
13601962.0000,0.0025,0.0018,9.8669,0.0009,0.0052,0.0000,22.7400
13624962.0000,-0.0075,-0.0482,9.8069,0.0009,0.0052,0.0000,22.7400
13647962.0000,-0.0275,-0.0182,9.7769,0.0009,-0.0048,0.0000,22.7900
13670962.0000,0.0125,-0.0182,9.7869,0.0009,0.0052,0.0000,22.7900
13693962.0000,0.0725,0.0218,9.7669,0.0009,-0.0048,0.0000,22.8800
13716962.0000,0.0625,-0.0182,9.8369,0.0009,-0.0048,0.0000,22.8800
13739962.0000,-0.0475,0.0318,9.7369,0.0009,0.0052,0.0000,22.8400
13762962.0000,-0.0675,0.0118,9.7869,0.0009,-0.0048,0.0000,22.8400
13785962.0000,0.0025,-0.0182,9.8369,0.0009,-0.0048,0.0000,22.7400
13808962.0000,0.0125,-0.0282,9.7769,0.0009,-0.0048,0.0000,22.7400
13831962.0000,0.0125,-0.0082,9.7869,0.0009,-0.0048,0.0000,22.6900
13854962.0000,-0.0075,-0.0282,9.8669,0.0009,0.0052,0.0000,22.7900
13877962.0000,-0.0475,0.0218,9.8069,0.0009,-0.0048,0.0000,22.7900
13900962.0000,0.0125,-0.0082,9.7869,0.0009,-0.0048,0.0000,22.6900
13923962.0000,0.0025,0.0318,9.7869,-0.0091,0.0052,0.0000,22.7400
13946962.0000,-0.0875,0.0418,9.8969,0.0009,-0.0048,0.0000,22.7400
13969962.0000,-0.0175,-0.0282,9.8369,0.0009,0.0052,0.0000,22.8400
13992962.0000,0.0525,0.0418,9.7869,0.0009,-0.0048,0.0000,22.7400
14015962.0000,0.0025,0.0318,9.8269,0.0009,0.0052,0.0000,22.8800
14038962.0000,0.0425,0.0218,9.8069,-0.0091,0.0052,0.0000,22.7900
14061962.0000,-0.0075,-0.0382,9.8169,0.0009,0.0052,0.0000,22.7900
14084962.0000,-0.0075,0.0018,9.7769,0.0009,0.0052,0.0000,22.7900
14107962.0000,-0.0175,0.0018,9.8369,0.0009,-0.0048,0.0000,22.8400
14130962.0000,0.0125,0.0518,9.8169,0.0009,-0.0048,0.0000,22.7400
14153962.0000,0.0725,-0.0182,9.7069,0.0009,0.0052,0.0000,22.9300
14176962.0000,-0.0375,-0.0182,9.7969,0.0009,0.0052,0.0000,22.8400
14199962.0000,0.0025,-0.0282,9.7269,0.0009,-0.0048,0.0000,22.7900
14222962.0000,-0.0375,-0.0082,9.6769,0.0009,-0.0048,0.0000,22.6900
14245962.0000,-0.0275,0.0518,9.8069,-0.0091,-0.0048,0.0000,22.7900
14268962.0000,0.0125,-0.0582,9.8169,0.0009,0.0052,0.0000,22.8800
14291962.0000,-0.0075,-0.0182,9.8169,0.0009,0.0052,0.0000,22.7900
14314962.0000,0.0025,0.0018,9.7969,0.0009,0.0052,0.0000,22.8400
14337962.0000,-0.0175,-0.0082,9.8169,0.0009,-0.0048,0.0000,22.7400
14360962.0000,-0.0275,-0.0082,9.8069,0.0009,-0.0048,0.0000,22.7400
14383962.0000,0.0225,-0.0182,9.8569,0.0009,0.0052,0.0000,22.7900
14406962.0000,0.0125,0.0418,9.8369,0.0009,0.0052,0.0000,22.6900
14429962.0000,0.0125,-0.0182,9.7469,0.0009,-0.0048,0.0000,22.7900
14452962.0000,0.0125,0.0318,9.7969,0.0009,0.0052,0.0000,22.6900
14475962.0000,-0.0375,-0.0082,9.8369,0.0009,0.0052,0.0000,22.7400
14498962.0000,-0.0275,-0.0582,9.8769,0.0009,0.0052,0.0000,22.8400
14521962.0000,0.0825,0.0018,9.7469,0.0009,0.0052,0.0000,22.7400
14544962.0000,0.0025,0.0318,9.8669,0.0009,0.0052,0.0000,22.8400
14567962.0000,0.0025,-0.0682,9.8069,0.0009,0.0052,0.0000,22.6900
14590962.0000,0.0325,0.0618,9.7969,0.0009,0.0052,0.0000,22.6900
14613962.0000,0.0125,0.0018,9.8169,0.0009,-0.0048,0.0000,22.8800
14636962.0000,-0.0275,0.0418,9.8469,0.0009,-0.0048,0.0000,22.8800
14659962.0000,-0.0275,0.0118,9.7969,0.0009,0.0052,0.0000,22.8400
14682962.0000,-0.0375,0.0218,9.9169,0.0009,0.0052,0.0000,22.8400
14705962.0000,-0.0375,0.0118,9.8269,0.0009,0.0052,0.0000,22.8400
14728962.0000,0.0225,0.0218,9.7769,0.0009,-0.0048,0.0000,22.7900
14751962.0000,0.0025,0.0218,9.7169,0.0009,0.0052,0.0000,22.7900
14774962.0000,0.0025,-0.0082,9.8169,0.0009,0.0052,0.0000,22.6900
14797962.0000,-0.0075,-0.0182,9.7969,0.0009,0.0052,0.0000,22.7900
14820962.0000,0.0125,0.0018,9.7269,0.0009,-0.0048,0.0000,22.6500
14843962.0000,-0.0275,0.0518,9.7769,0.0009,-0.0048,0.0000,22.8400
14866962.0000,0.0525,0.0118,9.8569,0.0009,-0.0048,0.0000,22.7400
14889962.0000,-0.0175,0.0418,9.8369,0.0009,-0.0048,0.0000,22.8400
14912962.0000,-0.0475,0.0218,9.8069,0.0009,-0.0048,0.0000,22.7900
14935962.0000,-0.0275,-0.0182,9.7569,0.0009,-0.0048,0.0000,22.7900
14958962.0000,0.0425,-0.0082,9.8369,0.0009,-0.0048,0.0000,22.7900
14981962.0000,-0.0375,0.0118,9.7369,-0.0091,-0.0048,0.0000,22.7900
15004962.0000,0.0525,-0.0482,9.7669,0.0009,0.0052,0.0000,22.7900
15027962.0000,0.0325,0.0018,9.7769,0.0009,0.0052,0.0000,22.7900
15050962.0000,-0.0075,-0.0282,9.8069,0.0009,0.0052,0.0000,22.8400
15073962.0000,-0.0075,-0.0082,9.7969,0.0009,-0.0048,0.0000,22.8400
15096962.0000,0.0725,-0.0182,9.6969,0.0009,0.0052,0.0000,22.7900
15119962.0000,0.0025,0.0118,9.7369,0.0009,-0.0048,0.0000,22.8800
15142962.0000,0.0025,0.0318,9.8369,0.0009,0.0052,0.0000,22.7900
15165962.0000,-0.0175,0.0618,9.8169,0.0009,0.0052,0.0000,22.7900
15188962.0000,0.0025,0.0818,9.9069,0.0009,0.0052,0.0000,22.8400
15211962.0000,0.0025,-0.0482,9.8369,0.0009,0.0052,0.0000,22.7400
15234962.0000,-0.0175,-0.0082,9.7969,0.0009,0.0052,0.0000,22.8400
15257962.0000,-0.0675,-0.0282,9.7469,0.0009,0.0052,0.0000,22.8400
15280962.0000,0.0425,0.0018,9.7669,0.0009,0.0052,0.0000,22.7900
15303962.0000,-0.0175,0.0118,9.7369,0.0009,-0.0048,0.0000,22.7900
15326962.0000,0.0325,0.0118,9.7169,0.0009,0.0052,0.0000,22.7900
15349962.0000,0.0425,-0.0182,9.7969,0.0009,-0.0048,0.0000,22.7900
15372962.0000,0.0325,0.0218,9.7569,0.0009,0.0052,0.0000,22.7400
15395962.0000,-0.0275,-0.0282,9.7669,0.0009,-0.0048,0.0000,22.8400
15418962.0000,0.0325,0.0118,9.8169,-0.0091,-0.0048,0.0000,22.6500
15441962.0000,-0.0275,0.0418,9.8969,0.0009,-0.0048,0.0000,22.7400
15464962.0000,-0.0075,0.0118,9.8269,0.0009,-0.0048,0.0000,22.7900
15487962.0000,-0.0275,-0.0282,9.7969,-0.0091,-0.0048,0.0000,22.7900
15510962.0000,0.0325,0.0018,9.7969,0.0009,0.0052,0.0000,22.7900
15533962.0000,0.0025,0.0718,9.8269,0.0009,0.0052,0.0000,22.6900
15556962.0000,-0.0675,-0.0782,9.8969,0.0009,0.0052,0.0000,22.7400
15579962.0000,0.0025,0.0418,9.7969,0.0009,-0.0048,0.0000,22.7400
15602962.0000,0.0225,-0.0282,9.8669,0.0009,0.0052,0.0000,22.7400
15625962.0000,-0.0175,-0.0282,9.7269,0.0009,-0.0048,0.0000,22.7400
15648962.0000,-0.0575,-0.0182,9.8069,-0.0091,0.0052,0.0000,22.6900
15671962.0000,-0.0275,-0.0082,9.8469,-0.0091,-0.0048,0.0000,22.8800
15694962.0000,-0.0575,-0.0582,9.7669,0.0009,0.0052,0.0000,22.7900
15717962.0000,-0.0175,0.0018,9.8369,0.0009,0.0052,0.0000,22.7900
15740962.0000,-0.0075,-0.0082,9.8069,0.0009,-0.0048,0.0000,22.7900
15763962.0000,0.0225,-0.0382,9.7169,0.0009,0.0052,0.0000,22.7900
15786962.0000,-0.0175,0.0018,9.8269,0.0009,-0.0048,0.0000,22.7400
15809962.0000,0.0025,0.0318,9.8569,0.0009,-0.0048,0.0000,22.8400
15832962.0000,-0.0275,0.0118,9.9069,0.0009,0.0052,0.0000,22.7900
15855962.0000,0.0025,0.0618,9.7769,-0.0091,0.0052,0.0000,22.7900
15878962.0000,-0.0075,0.0418,9.8169,0.0009,-0.0048,0.0000,22.6900
15901962.0000,-0.0275,-0.0582,9.8169,0.0009,0.0052,0.0000,22.7900
15924962.0000,-0.0175,0.0418,9.7769,0.0009,-0.0048,0.0000,22.7400
15947962.0000,-0.0175,0.0018,9.8069,0.0009,0.0052,0.0000,22.8400
15970962.0000,0.0225,0.0218,9.7369,0.0009,0.0052,0.0000,22.9300
15993962.0000,-0.0075,0.0518,9.8469,-0.0091,0.0052,0.0000,22.8400
16016962.0000,0.0225,0.0018,9.7069,0.0009,-0.0048,0.0000,22.7900
16039962.0000,0.0125,-0.0382,9.7869,0.0009,0.0052,0.0000,22.7900
16062962.0000,-0.0175,0.0118,9.8069,0.0009,0.0052,0.0000,22.7900
16085962.0000,-0.0475,-0.0282,9.7869,0.0009,-0.0048,0.0000,22.8800
16108962.0000,-0.0375,-0.0482,9.7869,0.0009,0.0052,0.0000,22.9300
16131962.0000,-0.0875,0.0118,9.7769,0.0009,0.0052,0.0000,22.8400
16154962.0000,0.0325,0.0218,9.8069,-0.0091,-0.0048,0.0000,22.8400
16177962.0000,0.0525,-0.0082,9.8169,0.0009,0.0052,0.0000,22.8400
16200962.0000,-0.0175,0.0118,9.9169,0.0009,0.0052,0.0000,22.7900
16223962.0000,0.0025,0.0418,9.7869,0.0009,0.0052,0.0000,22.7900
16246962.0000,-0.0075,0.0518,9.8469,0.0009,-0.0048,0.0000,22.7900
16269962.0000,0.0425,-0.0282,9.8469,0.0009,0.0052,0.0000,22.7900
16292962.0000,-0.0175,-0.0182,9.8169,0.0009,-0.0048,0.0000,22.8400
16315962.0000,-0.0075,-0.0082,9.7469,0.0009,0.0052,0.0000,22.7400
16338962.0000,0.0225,0.0418,9.7869,0.0009,-0.0048,0.0000,22.7400
16361962.0000,-0.0375,0.0018,9.8969,0.0009,-0.0048,0.0000,22.8400
16384962.0000,0.0625,0.0518,9.7369,0.0009,-0.0048,0.0000,22.8800
16407962.0000,-0.0475,-0.0282,9.8269,0.0009,0.0052,0.0000,22.7900
16430962.0000,0.0325,0.0018,9.7869,0.0009,-0.0048,0.0000,22.6900
16453962.0000,0.0825,0.0418,9.8069,0.0009,-0.0048,0.0000,22.7900
16476962.0000,-0.0375,-0.0082,9.8869,0.0009,-0.0048,0.0000,22.7900
16499962.0000,0.0025,-0.0282,9.8269,0.0009,0.0052,0.0000,22.7900
16522962.0000,-0.0675,-0.0782,9.8169,0.0009,0.0052,0.0000,22.7400
16545962.0000,-0.0375,-0.0182,9.8169,0.0009,-0.0048,0.0000,22.7400
16568962.0000,-0.0375,-0.0582,9.8769,0.0009,0.0052,0.0000,22.6900
16591962.0000,0.0025,0.0018,9.7669,0.0009,-0.0048,0.0000,22.7900
16614962.0000,0.0125,-0.0082,9.8369,0.0009,0.0052,0.0000,22.7900
16637962.0000,-0.0075,0.0218,9.7669,0.0009,0.0052,0.0000,22.7900
16660962.0000,0.0225,0.0118,9.8069,0.0009,0.0052,0.0000,22.7400
16683962.0000,0.0125,-0.0082,9.7769,0.0009,-0.0048,0.0000,22.8400
16706962.0000,-0.0375,-0.0282,9.7469,0.0009,-0.0048,0.0000,22.8400
16729962.0000,0.0225,-0.0182,9.7569,0.0009,0.0052,0.0000,22.8400
16752962.0000,0.0525,0.0318,9.8069,0.0009,0.0052,0.0000,22.6900
16775962.0000,-0.0075,0.0518,9.7569,0.0009,0.0052,0.0000,22.7900
16798962.0000,-0.0275,-0.0182,9.8569,-0.0091,0.0052,0.0000,22.7900
16821962.0000,0.0625,0.0018,9.8469,0.0009,0.0052,0.0000,22.7900
16844962.0000,0.0225,-0.0282,9.7769,0.0009,0.0052,0.0000,22.8400
16867962.0000,0.0125,0.0018,9.8669,0.0009,-0.0048,0.0000,22.7400
16890962.0000,0.0225,0.0418,9.8569,0.0009,-0.0048,0.0000,22.7400
16913962.0000,0.0425,0.0118,9.8769,0.0009,0.0052,0.0000,22.8400
16936962.0000,-0.0575,0.0418,9.8269,0.0009,-0.0048,0.0000,22.7900
16959962.0000,0.0225,0.0018,9.8169,0.0009,0.0052,0.0000,22.7900
16982962.0000,-0.0275,-0.0282,9.8169,0.0009,-0.0048,0.0000,22.7900
17005962.0000,-0.0475,-0.0182,9.8969,0.0009,0.0052,0.0000,22.7900
17028962.0000,-0.0575,0.0318,9.8069,0.0009,0.0052,0.0000,22.8400
17051962.0000,-0.0675,0.0018,9.7469,0.0009,-0.0048,0.0000,22.7400
17074962.0000,0.0725,-0.0082,9.7869,0.0009,0.0052,0.0000,22.7400
17097962.0000,-0.0275,-0.0482,9.7469,0.0009,0.0052,0.0000,22.8400
17120962.0000,0.0025,0.0018,9.7469,0.0009,-0.0048,0.0000,22.7900
17143962.0000,-0.0175,0.0118,9.7569,-0.0091,-0.0048,0.0000,22.6900
17166962.0000,0.0025,0.0518,9.8569,0.0009,-0.0048,0.0000,22.6900
17189962.0000,0.0425,0.0218,9.8069,0.0009,-0.0048,0.0000,22.9800
17212962.0000,0.0025,-0.0482,9.8669,0.0009,-0.0048,0.0000,22.7900
17235962.0000,-0.0475,-0.0282,9.8469,0.0009,0.0052,0.0000,22.7900
17258962.0000,0.0125,0.0018,9.7969,0.0009,-0.0048,0.0000,22.8400
17281962.0000,0.0325,0.0318,9.7169,0.0009,0.0052,0.0000,22.8400
17304962.0000,0.0425,-0.0482,9.7869,0.0009,0.0052,0.0000,22.7900
17327962.0000,0.0025,-0.0182,9.8569,0.0009,-0.0048,0.0000,22.7900
17350962.0000,-0.0075,0.0318,9.7169,0.0009,-0.0048,0.0000,22.7900
17373962.0000,0.0225,-0.0082,9.7969,0.0009,0.0052,0.0000,22.7900
17396962.0000,0.0025,0.0618,9.8369,0.0009,0.0052,0.0000,22.7400
17419962.0000,0.0125,0.0018,9.8369,0.0009,-0.0048,0.0000,22.8400
17442962.0000,0.0225,-0.0582,9.8269,0.0009,0.0052,0.0000,22.8400
17465962.0000,0.0325,0.0018,9.8169,0.0009,-0.0048,0.0000,22.7400
17488962.0000,-0.0175,-0.0182,9.8269,0.0009,-0.0048,0.0000,22.6900
17511962.0000,0.0525,0.0018,9.8469,0.0009,0.0052,0.0000,22.7900
17534962.0000,-0.0475,-0.0182,9.7469,0.0009,0.0052,0.0000,22.6900
17557962.0000,-0.0175,-0.0682,9.7669,0.0009,0.0052,0.0000,22.7900
17580962.0000,-0.0275,0.0218,9.8769,0.0009,0.0052,0.0000,22.6500
17603962.0000,0.0325,-0.0282,9.7069,0.0009,0.0052,0.0000,22.7400
17626962.0000,0.0025,-0.0182,9.8469,0.0009,0.0052,0.0000,22.7400
17649962.0000,-0.0375,-0.0182,9.7569,0.0009,-0.0048,0.0000,22.7400
17672962.0000,0.0525,0.0018,9.7669,0.0009,-0.0048,0.0000,22.7900
17695962.0000,-0.0775,-0.0082,9.8069,0.0009,0.0052,0.0000,22.8800
17718962.0000,-0.0375,-0.0282,9.8469,0.0009,0.0052,0.0000,22.7900
17741962.0000,0.0025,0.0118,9.8369,0.0009,-0.0048,0.0000,22.7900
17764962.0000,-0.0375,-0.0382,9.7969,0.0009,-0.0048,0.0000,22.7400
17787962.0000,0.0225,-0.0182,9.8869,0.0009,0.0052,0.0000,22.8400
17810962.0000,0.0125,0.0118,9.8169,0.0009,0.0052,0.0000,22.7400
17833962.0000,-0.0275,-0.0182,9.7769,0.0009,-0.0048,0.0000,22.7400
17856962.0000,0.0225,0.0418,9.8169,0.0009,-0.0048,0.0000,22.7900
17879962.0000,-0.0075,-0.0382,9.7469,0.0009,0.0052,0.0000,22.8800
17902962.0000,0.0325,0.0018,9.7769,0.0009,0.0052,0.0000,22.6900
17925962.0000,-0.0375,0.0218,9.7869,-0.0091,-0.0048,0.0000,22.7900
17948962.0000,0.0225,0.0318,9.7869,-0.0091,-0.0048,0.0000,22.7900
17971962.0000,0.0225,0.0218,9.8069,0.0009,0.0052,0.0000,22.7900
17994962.0000,0.0125,-0.0282,9.8269,0.0009,-0.0048,0.0000,22.7400
18017962.0000,0.0225,-0.0082,9.7269,0.0009,-0.0048,0.0000,22.7400
18040962.0000,-0.0175,0.0118,9.7569,0.0009,0.0052,0.0000,22.7900
18063962.0000,-0.0175,-0.0182,9.8069,-0.0091,0.0052,0.0000,22.7900
18086962.0000,-0.0275,-0.0682,9.7569,0.0009,0.0052,0.0000,22.7900
18109962.0000,0.0025,-0.0382,9.7969,0.0009,-0.0048,0.0000,22.6900
18132962.0000,0.0325,-0.0482,9.8169,0.0009,-0.0048,0.0000,22.7400
18155962.0000,0.0025,0.0318,9.8369,-0.0091,0.0052,0.0000,22.8400
18178962.0000,-0.0175,-0.0382,9.8469,0.0009,-0.0048,0.0000,22.7400
18201962.0000,0.0225,-0.0282,9.7669,0.0009,0.0052,0.0000,22.7400
18224962.0000,0.0225,0.0218,9.7769,0.0009,0.0052,0.0000,22.7900
18247962.0000,0.0125,0.0118,9.8169,0.0009,-0.0048,0.0000,22.6900
18270962.0000,0.0225,0.0218,9.6769,0.0009,-0.0048,0.0000,22.7900
18293962.0000,-0.0175,0.0118,9.7769,0.0009,0.0052,0.0000,22.7900
18316962.0000,-0.0275,-0.0082,9.8869,0.0009,0.0052,0.0000,22.8400
18339962.0000,-0.0175,0.0418,9.8069,0.0009,0.0052,0.0000,22.8400
18362962.0000,-0.0275,0.0418,9.8469,0.0009,-0.0048,0.0000,22.7400
18385962.0000,-0.0575,-0.0082,9.8169,0.0009,-0.0048,0.0000,22.9300
18408962.0000,-0.0075,0.0018,9.7869,0.0009,-0.0048,0.0000,22.7900
18431962.0000,-0.0075,0.0118,9.8469,0.0009,-0.0048,0.0000,22.8800
18454962.0000,0.0525,-0.0182,9.7669,0.0009,-0.0048,0.0000,22.8800
18477962.0000,-0.0375,-0.0482,9.8169,0.0009,0.0052,0.0000,22.8800
18500962.0000,-0.0275,0.0618,9.8469,0.0009,-0.0048,0.0000,22.7400
18523962.0000,0.0125,0.0118,9.7869,0.0009,-0.0048,0.0000,22.7400
18546962.0000,-0.0175,0.0218,9.7869,0.0009,-0.0048,0.0000,22.8400
18569962.0000,0.0325,-0.0082,9.8969,0.0009,-0.0048,0.0000,22.8400
18592962.0000,-0.0375,0.0018,9.7869,0.0009,-0.0048,0.0000,22.7900
18615962.0000,-0.0375,-0.0082,9.8369,0.0009,-0.0048,0.0000,22.7900
18638962.0000,0.0425,0.0318,9.7169,0.0009,-0.0048,0.0000,22.7900
18661962.0000,0.0025,-0.0182,9.8469,0.0009,-0.0048,0.0000,22.7900
18684962.0000,0.0125,0.0318,9.8069,-0.0091,-0.0048,0.0000,22.7900
18707962.0000,-0.0375,-0.0182,9.7669,0.0009,0.0052,0.0000,22.7900
18730962.0000,0.0725,-0.0082,9.8269,0.0009,-0.0048,0.0000,22.7400
18753962.0000,-0.0375,-0.0282,9.7269,0.0009,0.0052,0.0000,22.7400
18776962.0000,-0.0175,-0.0282,9.8069,0.0009,0.0052,0.0000,22.7900
18799962.0000,-0.0175,0.0218,9.7369,0.0009,-0.0048,0.0000,22.7900
18822962.0000,0.0425,-0.0482,9.8169,-0.0091,-0.0048,0.0000,22.7900
18845962.0000,0.0225,-0.0382,9.7869,0.0009,0.0052,0.0000,22.7900
18868962.0000,-0.0275,0.0318,9.8069,0.0009,-0.0048,0.0000,22.8400
18891962.0000,0.0225,-0.0182,9.7669,0.0009,0.0052,0.0000,22.7400
18914962.0000,-0.0175,0.0218,9.8369,0.0009,-0.0048,0.0000,22.8400
18937962.0000,-0.0675,0.0118,9.8369,0.0009,0.0052,0.0000,22.8400
18960962.0000,-0.0675,-0.0182,9.7969,0.0009,-0.0048,0.0000,22.7900
18983962.0000,0.0125,0.0418,9.7469,0.0009,-0.0048,0.0000,22.6900
19006962.0000,-0.0175,-0.0382,9.8069,0.0009,0.0052,0.0000,22.7900
19029962.0000,0.0025,0.0018,9.8169,0.0009,-0.0048,0.0000,22.7900
19052962.0000,0.0025,0.0018,9.8069,0.0009,-0.0048,0.0000,22.7400
19075962.0000,-0.0075,0.0218,9.7969,-0.0091,-0.0048,0.0000,22.7400
19098962.0000,0.0425,-0.0282,9.8069,0.0009,-0.0048,0.0000,22.7400
19121962.0000,0.0125,0.0218,9.7869,0.0009,-0.0048,0.0000,22.8400
19144962.0000,-0.0075,-0.0182,9.8169,0.0009,-0.0048,0.0000,22.7900
19167962.0000,-0.0375,-0.0382,9.8369,0.0009,-0.0048,0.0000,22.8800
19190962.0000,0.0025,0.0018,9.8269,0.0009,-0.0048,0.0000,22.7900
19213962.0000,0.0125,-0.0182,9.8469,0.0009,-0.0048,0.0000,22.7900
19236962.0000,-0.0075,-0.0082,9.8069,-0.0091,0.0052,0.0000,22.9300
19259962.0000,0.0225,-0.0282,9.8069,0.0009,0.0052,0.0000,22.8400
19282962.0000,0.0425,0.0018,9.7669,0.0009,-0.0048,0.0000,22.9300
19305962.0000,-0.0075,0.0418,9.7869,0.0009,-0.0048,0.0000,22.7400
19328962.0000,0.0125,0.0118,9.8069,0.0009,0.0052,0.0000,22.8800
19351962.0000,0.0225,0.0218,9.9369,0.0009,-0.0048,0.0000,22.7900
19374962.0000,0.0325,0.0118,9.8569,-0.0091,0.0052,0.0000,22.7900
19397962.0000,-0.0675,0.0618,9.8969,0.0009,0.0052,0.0000,22.7900
19420962.0000,0.0125,0.0318,9.7669,-0.0091,0.0052,0.0000,22.8800
19443962.0000,0.0125,-0.0282,9.8569,0.0009,-0.0048,0.0000,22.8800
19466962.0000,0.0025,-0.0482,9.8469,0.0009,0.0052,0.0000,22.8400
19489962.0000,0.0125,0.0018,9.7869,0.0009,-0.0048,0.0000,22.7400
19512962.0000,0.0125,-0.0482,9.8569,-0.0091,-0.0048,0.0000,22.7900
19535962.0000,-0.0275,0.0218,9.7869,-0.0091,0.0052,0.0000,22.6900
19558962.0000,0.0225,0.0118,9.7869,0.0009,0.0052,0.0000,22.8800
19581962.0000,-0.0375,0.0018,9.8169,0.0009,0.0052,0.0000,22.7900
19604962.0000,0.0125,-0.0382,9.8369,0.0009,-0.0048,0.0000,22.8400
19627962.0000,-0.0575,0.0318,9.7669,0.0009,0.0052,0.0000,22.7400
19650962.0000,-0.0075,0.0118,9.8169,0.0009,-0.0048,0.0000,22.8400
19673962.0000,-0.0175,-0.0382,9.7969,0.0009,-0.0048,0.0000,22.8400
19696962.0000,0.0525,0.0318,9.8369,0.0009,0.0052,0.0000,22.8800
19719962.0000,0.0225,-0.0382,9.7069,0.0009,0.0052,0.0000,22.7900
19742962.0000,0.0025,0.0018,9.8069,0.0009,-0.0048,0.0000,22.7900
19765962.0000,-0.0075,-0.0082,9.7969,0.0009,0.0052,0.0000,22.8800
19788962.0000,0.0125,0.0018,9.8169,0.0009,0.0052,0.0000,22.7400
19811962.0000,-0.0075,-0.0082,9.8369,0.0009,0.0052,0.0000,22.7400
19834962.0000,0.0225,0.0218,9.7769,0.0009,0.0052,0.0000,22.8400
19857962.0000,0.0425,-0.0482,9.8569,0.0009,0.0052,0.0000,22.8400
19880962.0000,-0.0275,0.0418,9.7969,0.0009,0.0052,0.0000,22.7900
19903962.0000,0.0025,-0.0182,9.8069,0.0009,0.0052,0.0000,22.8800
19926962.0000,-0.0175,-0.0182,9.8069,0.0009,-0.0048,0.0000,22.8800
19949962.0000,0.0625,0.0018,9.7669,0.0009,-0.0048,0.0000,22.8800
19972962.0000,-0.0375,0.0218,9.8169,0.0009,-0.0048,0.0000,22.7400
19995962.0000,0.0025,-0.0082,9.7869,0.0009,-0.0048,0.0000,22.7400
20018962.0000,0.0025,0.0318,9.7969,0.0009,0.0052,0.0000,22.8400
20041962.0000,-0.0175,0.0118,9.7669,0.0009,-0.0048,0.0000,22.8400
20064962.0000,0.0425,-0.0382,9.7769,0.0009,-0.0048,0.0000,22.7900
20087962.0000,0.0025,0.0118,9.8469,0.0009,-0.0048,0.0000,22.8800
20110962.0000,0.0025,0.0418,9.8669,0.0009,0.0052,0.0000,22.8800
20133962.0000,0.0125,0.0318,9.7969,0.0009,0.0052,0.0000,22.7900
20156962.0000,-0.0475,0.0118,9.8569,0.0009,0.0052,0.0000,22.8800
20179962.0000,-0.0075,-0.0482,9.7969,0.0009,-0.0048,0.0000,22.7900
20202962.0000,0.0725,0.0118,9.8369,0.0009,0.0052,0.0000,22.8400
20225962.0000,0.0625,0.0318,9.7869,0.0009,0.0052,0.0000,22.8400
20248962.0000,-0.0175,-0.0082,9.7969,0.0009,0.0052,0.0000,22.8800
20271962.0000,-0.0275,0.0018,9.7869,0.0009,0.0052,0.0000,22.8800
20294962.0000,0.0025,0.0518,9.8469,0.0009,0.0052,0.0000,22.7900
20317962.0000,0.0125,-0.0482,9.7869,0.0009,0.0052,0.0000,22.8800
20340962.0000,-0.0475,0.0618,9.7369,0.0009,0.0052,0.0000,22.8400
20363962.0000,-0.0075,-0.0182,9.8369,0.0009,0.0052,0.0000,22.8400
20386962.0000,-0.0175,-0.0382,9.7769,0.0009,-0.0048,0.0000,22.9300
20409962.0000,0.0225,-0.0482,9.7869,0.0009,0.0052,0.0000,22.8400
20432962.0000,0.0525,0.0218,9.8269,0.0009,-0.0048,0.0000,22.8800
20455962.0000,-0.0275,0.0118,9.7769,0.0009,-0.0048,0.0000,22.6900
20478962.0000,-0.0175,0.0118,9.8069,0.0009,0.0052,0.0000,22.8800
20501962.0000,-0.0075,0.0018,9.8169,0.0009,-0.0048,0.0000,22.8800
20524962.0000,-0.0175,-0.0082,9.8169,0.0009,-0.0048,0.0000,22.8400
20547962.0000,0.0725,0.0118,9.8069,0.0009,-0.0048,0.0000,22.7400
20570962.0000,0.0225,-0.0082,9.7869,-0.0091,-0.0048,0.0000,22.8400
20593962.0000,0.0325,-0.0082,9.7569,0.0009,-0.0048,0.0000,22.8400
20616962.0000,-0.0075,0.0218,9.8069,0.0009,-0.0048,0.0000,22.7900
20639962.0000,0.0225,-0.0282,9.8769,0.0009,-0.0048,0.0000,22.7900
20662962.0000,-0.0475,-0.0082,9.7769,0.0009,0.0052,0.0000,22.8800
20685962.0000,-0.0075,-0.0782,9.8569,0.0009,0.0052,0.0000,22.7900
20708962.0000,-0.0275,0.0118,9.8469,-0.0091,0.0052,0.0000,22.8400
20731962.0000,-0.0375,0.1018,9.7169,0.0009,0.0052,0.0000,22.7400
20754962.0000,0.0025,0.0118,9.7369,0.0009,0.0052,0.0000,22.8400
20777962.0000,-0.0075,0.0218,9.8669,0.0009,-0.0048,0.0000,22.8400
20800962.0000,-0.0275,-0.0182,9.7869,0.0009,-0.0048,0.0000,22.7900
20823962.0000,-0.0175,0.0218,9.8369,0.0009,-0.0048,0.0000,22.8800
20846962.0000,-0.0175,0.0518,9.9269,0.0009,-0.0048,0.0000,22.8800
20869962.0000,-0.0175,0.0118,9.7669,0.0009,0.0052,0.0000,22.7900
20892962.0000,-0.0275,0.0418,9.7669,0.0009,0.0052,0.0000,22.7900
20915962.0000,0.0225,-0.0282,9.8069,-0.0091,-0.0048,0.0000,22.8800
20938962.0000,0.0025,0.0118,9.8169,0.0009,-0.0048,0.0000,22.8400
20961962.0000,0.0725,0.0118,9.8369,0.0009,0.0052,0.0000,22.8400
20984962.0000,0.0025,0.0218,9.8069,0.0009,-0.0048,0.0000,22.7900
21007962.0000,0.0225,-0.0482,9.8169,0.0009,-0.0048,0.0000,22.7900
21030962.0000,0.0225,0.0818,9.9069,-0.0091,0.0052,0.0000,22.8800
21053962.0000,0.0125,0.0518,9.8569,0.0009,0.0052,0.0000,22.7900
21076962.0000,-0.0375,0.0518,9.7269,0.0009,-0.0048,0.0000,22.8400
21099962.0000,-0.0375,-0.0482,9.8569,0.0009,-0.0048,0.0000,22.7400
21122962.0000,-0.0275,0.0018,9.8369,0.0009,-0.0048,0.0000,22.8400
21145962.0000,0.0125,0.0518,9.7869,0.0009,-0.0048,0.0000,22.8400
21168962.0000,-0.0075,0.0318,9.7669,0.0009,0.0052,0.0000,22.7900
21191962.0000,-0.0275,-0.0182,9.8669,0.0009,-0.0048,0.0000,22.7900
21214962.0000,-0.0175,-0.0682,9.7769,0.0009,-0.0048,0.0000,22.7900
21237962.0000,-0.0375,0.0218,9.8569,0.0009,-0.0048,0.0000,22.7900
21260962.0000,-0.0275,-0.0182,9.8269,0.0009,-0.0048,0.0000,22.8400
21283962.0000,0.0625,-0.0182,9.8369,0.0009,-0.0048,0.0000,22.8400
21306962.0000,0.0625,0.0118,9.7969,-0.0091,-0.0048,0.0000,22.8400
21329962.0000,0.0025,-0.0582,9.8369,0.0009,0.0052,0.0000,22.7400
21352962.0000,0.0025,-0.0382,9.7869,0.0009,-0.0048,0.0000,22.7900
21375962.0000,0.0125,-0.0182,9.7769,-0.0091,-0.0048,0.0000,22.7900
21398962.0000,-0.0375,-0.0582,9.7669,0.0009,-0.0048,0.0000,22.7900
21421962.0000,0.0025,0.0218,9.8969,0.0009,0.0052,0.0000,22.7900
21444962.0000,0.0025,-0.0282,9.8269,0.0009,0.0052,0.0000,22.8400
21467962.0000,-0.0175,0.0118,9.7769,0.0009,-0.0048,0.0000,22.7400
21490962.0000,0.0025,0.0518,9.7769,0.0009,-0.0048,0.0000,22.8400
21513962.0000,0.0025,0.0018,9.8569,0.0009,0.0052,0.0000,22.9300
21536962.0000,0.0725,0.0518,9.7969,0.0009,0.0052,0.0000,22.7900
21559962.0000,0.0225,0.0418,9.7869,0.0009,0.0052,0.0000,22.8800
21582962.0000,-0.0475,0.0218,9.7269,0.0009,-0.0048,0.0000,22.7900
21605962.0000,-0.0175,-0.0182,9.7869,0.0009,-0.0048,0.0000,22.7900
21628962.0000,0.0125,-0.0482,9.8069,0.0009,-0.0048,0.0000,22.8800
21651962.0000,0.0125,0.0318,9.8869,0.0009,-0.0048,0.0000,22.8800
21674962.0000,0.0225,0.0418,9.7869,0.0009,-0.0048,0.0000,22.9300
21697962.0000,-0.0175,0.0318,9.7969,0.0009,0.0052,0.0000,22.8400
21720962.0000,0.0225,0.0218,9.7969,0.0009,0.0052,0.0000,22.7900
21743962.0000,0.0025,-0.0082,9.7969,0.0009,-0.0048,0.0000,22.8800
21766962.0000,0.0025,0.0118,9.7969,0.0009,0.0052,0.0000,22.8800
21789962.0000,-0.0375,0.0118,9.7069,0.0009,0.0052,0.0000,22.7900
21812962.0000,-0.0275,0.0118,9.8469,0.0009,-0.0048,0.0000,22.7400
21835962.0000,0.0125,0.0418,9.7869,0.0009,0.0052,0.0000,22.8400
21858962.0000,0.0025,0.0418,9.8069,0.0009,0.0052,0.0000,22.9300
21881962.0000,0.0025,0.0618,9.8369,0.0009,0.0052,0.0000,22.8400
21904962.0000,-0.0475,-0.0082,9.7669,0.0009,0.0052,0.0000,22.7900
21927962.0000,-0.0275,-0.0082,9.8669,0.0009,-0.0048,0.0000,22.8800
21950962.0000,-0.0075,0.0418,9.7869,0.0009,0.0052,0.0000,22.7900
21973962.0000,0.0325,0.0418,9.8069,0.0009,0.0052,0.0000,22.6900
21996962.0000,0.0125,-0.0282,9.7369,0.0009,0.0052,0.0000,22.9300
22019962.0000,0.0125,0.0018,9.8169,0.0009,0.0052,0.0000,22.8400
22042962.0000,-0.0175,0.0018,9.8069,0.0009,-0.0048,0.0000,22.7400
22065962.0000,-0.0175,0.0018,9.7669,0.0009,0.0052,0.0000,22.8400
22088962.0000,0.0025,0.0518,9.7669,0.0009,-0.0048,0.0000,22.7900
22111962.0000,0.0325,0.0018,9.7269,-0.0091,-0.0048,0.0000,22.7900
22134962.0000,-0.0275,-0.0282,9.8369,0.0009,0.0052,0.0000,22.8800
22157962.0000,0.0125,-0.0182,9.8269,0.0009,0.0052,0.0000,22.6900
22180962.0000,0.0125,-0.0582,9.7769,0.0009,-0.0048,0.0000,22.7400
22203962.0000,0.0325,-0.0282,9.7869,-0.0091,-0.0048,0.0000,22.8400
22226962.0000,-0.0175,0.0318,9.8269,-0.0091,-0.0048,0.0000,22.8400
22249962.0000,0.0125,-0.0182,9.7369,0.0009,-0.0048,0.0000,22.8400
22272962.0000,0.0125,-0.0682,9.8569,0.0009,-0.0048,0.0000,22.8800
22295962.0000,-0.0275,-0.0082,9.8769,0.0009,0.0052,0.0000,22.8800
22318962.0000,-0.0175,-0.0782,9.8169,0.0009,0.0052,0.0000,22.8800
22341962.0000,0.0525,0.0218,9.9169,0.0009,0.0052,0.0000,22.8800
22364962.0000,-0.0175,-0.0182,9.7769,0.0009,-0.0048,0.0000,22.9800
22387962.0000,-0.0575,0.0618,9.7969,0.0009,0.0052,0.0000,22.8400
22410962.0000,0.0225,-0.0582,9.8869,0.0009,-0.0048,0.0000,22.9300
22433962.0000,-0.0375,-0.0382,9.8269,0.0009,-0.0048,0.0000,22.8400
22456962.0000,-0.0075,-0.0082,9.7869,-0.0091,-0.0048,0.0000,22.7900
22479962.0000,-0.0175,-0.0582,9.8469,0.0009,0.0052,0.0000,22.8800
22502962.0000,-0.0375,-0.0282,9.7769,0.0009,-0.0048,0.0000,22.7900
22525962.0000,0.0425,0.0218,9.8169,0.0009,-0.0048,0.0000,22.8800
22548962.0000,0.0325,-0.0182,9.7969,0.0009,0.0052,0.0000,22.8400
22571962.0000,0.0125,0.0418,9.8369,0.0009,0.0052,0.0000,22.8400
22594962.0000,0.0425,0.0618,9.8369,-0.0091,0.0052,0.0000,22.8400
22617962.0000,0.0025,0.0118,9.8969,0.0009,-0.0048,0.0000,22.9300
22640962.0000,0.0225,-0.0182,9.8369,0.0009,0.0052,0.0000,22.7900
22663962.0000,-0.0175,0.0418,9.8469,0.0009,-0.0048,0.0000,22.8800
22686962.0000,0.0125,0.0018,9.7469,0.0009,-0.0048,0.0000,22.8800
22709962.0000,0.0825,0.0118,9.8269,0.0009,-0.0048,0.0000,22.8800
22732962.0000,0.0025,-0.0182,9.7569,0.0009,0.0052,0.0000,22.8400
22755962.0000,-0.0075,-0.0082,9.7469,0.0009,-0.0048,0.0000,22.8400
22778962.0000,-0.0275,0.0218,9.7769,0.0009,-0.0048,0.0000,22.8400
22801962.0000,-0.0075,-0.0082,9.7969,0.0009,0.0052,0.0000,22.8400
22824962.0000,-0.0375,-0.0282,9.8969,0.0009,0.0052,0.0000,22.9800
22847962.0000,-0.0175,0.0018,9.8069,0.0009,0.0052,0.0000,22.8800
22870962.0000,0.0025,-0.0382,9.8369,0.0009,0.0052,0.0000,22.7900
22893962.0000,0.0025,-0.0282,9.7769,0.0009,-0.0048,0.0000,22.7900
22916962.0000,-0.0175,0.0318,9.7969,0.0009,-0.0048,0.0000,22.9300
22939962.0000,0.0025,-0.0182,9.7969,0.0009,-0.0048,0.0000,22.8400
22962962.0000,0.0025,0.0118,9.7869,0.0009,0.0052,0.0000,22.8400
22985962.0000,0.0025,0.0018,9.7869,0.0009,-0.0048,0.0000,22.9300
23008962.0000,-0.0575,0.0418,9.8369,0.0009,0.0052,0.0000,22.8800
23031962.0000,-0.0175,-0.0082,9.7969,0.0009,-0.0048,0.0000,22.8800
23054962.0000,0.0525,-0.0282,9.7569,0.0009,0.0052,0.0000,22.7900
23077962.0000,0.0325,-0.0182,9.7869,0.0009,0.0052,0.0000,22.7900
23100962.0000,0.0825,-0.0082,9.7869,0.0009,0.0052,0.0000,22.7900
23123962.0000,0.0625,0.0118,9.8369,0.0009,0.0052,0.0000,22.8400
23146962.0000,0.0225,-0.0182,9.8469,0.0009,-0.0048,0.0000,22.8400
23169962.0000,0.0025,0.0118,9.8169,0.0009,0.0052,0.0000,22.7400
23192962.0000,0.0125,-0.0082,9.8369,0.0009,-0.0048,0.0000,22.8800
23215962.0000,-0.0175,0.0018,9.7869,0.0009,0.0052,0.0000,22.8800
23238962.0000,-0.0875,-0.0082,9.7569,0.0009,0.0052,0.0000,22.8800
23261962.0000,0.0125,0.0718,9.8769,0.0009,-0.0048,0.0000,22.8800
23284962.0000,-0.0575,0.0418,9.6869,-0.0091,-0.0048,0.0000,22.8400
23307962.0000,0.0125,-0.0182,9.7069,0.0009,0.0052,0.0000,22.9300
23330962.0000,-0.0175,-0.0682,9.7869,0.0009,0.0052,0.0000,22.8400
23353962.0000,-0.0175,0.0218,9.8369,-0.0091,-0.0048,0.0000,22.7400
23376962.0000,0.0425,0.0018,9.8369,0.0009,0.0052,0.0000,22.7900
23399962.0000,0.0025,-0.0082,9.8069,0.0009,-0.0048,0.0000,22.8800
23422962.0000,-0.0775,0.0018,9.8669,0.0009,0.0052,0.0000,22.7900
23445962.0000,0.0125,0.0018,9.8269,0.0009,-0.0048,0.0000,22.8800
23468962.0000,-0.0375,0.0218,9.8269,0.0009,-0.0048,0.0000,22.8400
23491962.0000,-0.0075,-0.0382,9.8469,0.0009,-0.0048,0.0000,22.8400
23514962.0000,-0.0275,-0.0082,9.7369,0.0009,-0.0048,0.0000,22.9300
23537962.0000,0.0125,-0.0082,9.8469,0.0009,0.0052,0.0000,22.8400
23560962.0000,-0.0475,0.0118,9.8469,-0.0091,-0.0048,0.0000,22.8800
23583962.0000,0.0025,-0.0482,9.8069,0.0009,0.0052,0.0000,22.7900
23606962.0000,0.0225,0.0118,9.8369,0.0009,0.0052,0.0000,22.9800
23629962.0000,-0.0275,0.0018,9.8069,0.0009,0.0052,0.0000,22.9800
23652962.0000,-0.0175,0.0418,9.7269,0.0009,0.0052,0.0000,22.8400
23675962.0000,-0.0275,-0.0282,9.8569,0.0009,0.0052,0.0000,22.9300
23698962.0000,0.0425,-0.0582,9.7069,0.0009,0.0052,0.0000,22.8400
23721962.0000,0.0125,0.0018,9.7969,0.0009,-0.0048,0.0000,22.8400
23744962.0000,0.0125,-0.0282,9.7969,0.0009,-0.0048,0.0000,22.8800
23767962.0000,-0.0475,-0.0382,9.8269,0.0009,-0.0048,0.0000,22.8800
23790962.0000,0.0325,0.0318,9.8269,-0.0091,-0.0048,0.0000,22.8800
23813962.0000,-0.0175,-0.0082,9.7669,0.0009,-0.0048,0.0000,22.8800
23836962.0000,-0.0375,0.0518,9.7169,0.0009,0.0052,0.0000,22.9800
23859962.0000,0.0325,0.0118,9.8369,0.0009,-0.0048,0.0000,22.7400
23882962.0000,-0.0075,0.0318,9.6969,0.0009,-0.0048,0.0000,22.8400
23905962.0000,0.0525,-0.0682,9.7669,0.0009,0.0052,0.0000,22.8400
23928962.0000,0.0025,0.0218,9.8469,-0.0091,-0.0048,0.0000,22.7900
23951962.0000,-0.0175,-0.0182,9.8369,0.0009,0.0052,0.0000,22.7900
23974962.0000,-0.0275,0.0518,9.8569,0.0009,-0.0048,0.0000,22.7900
23997962.0000,0.0625,-0.0082,9.7869,0.0009,0.0052,0.0000,22.8800
24020962.0000,-0.0675,0.0418,9.7669,0.0009,-0.0048,0.0000,22.9300
24043962.0000,0.0225,0.0118,9.8769,0.0009,0.0052,0.0000,22.8400
24066962.0000,0.0425,0.0518,9.7769,0.0009,-0.0048,0.0000,22.7400
24089962.0000,0.0525,0.0418,9.8769,0.0009,0.0052,0.0000,22.9300
24112962.0000,-0.0275,-0.0182,9.8269,0.0009,0.0052,0.0000,22.8800
24135962.0000,0.0125,-0.0282,9.8669,0.0009,-0.0048,0.0000,22.8800
24158962.0000,-0.0475,0.0318,9.7969,0.0009,0.0052,0.0000,22.8800
24181962.0000,-0.0075,0.0118,9.8769,0.0009,-0.0048,0.0000,22.8800
24204962.0000,0.0125,-0.0382,9.7769,0.0009,0.0052,0.0000,22.8400
24227962.0000,0.0725,-0.0582,9.7669,0.0009,0.0052,0.0000,22.9300
24250962.0000,0.0325,0.0218,9.8669,0.0009,-0.0048,0.0000,22.9300
24273962.0000,-0.0275,0.0218,9.8269,0.0009,-0.0048,0.0000,22.8400
24296962.0000,0.0525,-0.0182,9.7869,-0.0091,0.0052,0.0000,22.8800
24319962.0000,-0.0375,-0.0082,9.8869,0.0009,-0.0048,0.0000,22.8800
24342962.0000,0.0125,0.0418,9.7869,0.0009,0.0052,0.0000,22.7900
24365962.0000,-0.0075,0.0118,9.7469,-0.0091,0.0052,0.0000,22.8800
24388962.0000,-0.0675,-0.0182,9.8669,0.0009,0.0052,0.0000,22.8400
24411962.0000,0.0225,-0.0282,9.8069,0.0009,-0.0048,0.0000,22.8400
24434962.0000,-0.0175,-0.0082,9.7669,0.0009,0.0052,0.0000,22.8400
24457962.0000,-0.0075,-0.0382,9.7369,0.0009,0.0052,0.0000,22.8400
24480962.0000,-0.0475,-0.0182,9.7869,0.0009,-0.0048,0.0000,22.7900
24503962.0000,0.0025,0.0018,9.8269,0.0009,-0.0048,0.0000,22.9800
24526962.0000,0.0025,0.0318,9.8269,0.0009,-0.0048,0.0000,22.8800
24549962.0000,0.0525,-0.0682,9.7769,0.0009,0.0052,0.0000,22.8800
24572962.0000,-0.0275,0.0418,9.9169,0.0009,0.0052,0.0000,22.9800
24595962.0000,0.0425,0.0218,9.7669,0.0009,-0.0048,0.0000,22.8400
24618962.0000,-0.0375,0.0018,9.7969,0.0009,0.0052,0.0000,22.9300
24641962.0000,-0.0075,-0.0182,9.8169,0.0009,0.0052,0.0000,22.8400
24664962.0000,0.0425,0.0018,9.8869,0.0009,0.0052,0.0000,22.8800
24687962.0000,0.0125,-0.0282,9.8369,0.0009,0.0052,0.0000,22.8800
24710962.0000,0.0025,-0.0482,9.7469,0.0009,-0.0048,0.0000,22.8800
24733962.0000,0.0225,-0.0282,9.8069,0.0009,-0.0048,0.0000,22.8800
24756962.0000,0.0425,-0.0182,9.8369,0.0009,0.0052,0.0000,22.8400
24779962.0000,0.0025,-0.0582,9.7869,0.0009,-0.0048,0.0000,22.8400
24802962.0000,0.0325,0.0018,9.8769,0.0009,-0.0048,0.0000,22.8400
24825962.0000,0.0325,-0.0082,9.8369,0.0009,-0.0048,0.0000,22.8400
24848962.0000,0.0125,0.0318,9.7869,0.0009,-0.0048,0.0000,22.9800
24871962.0000,-0.0275,-0.0482,9.7669,0.0009,0.0052,0.0000,22.8800
24894962.0000,-0.0175,0.0018,9.7669,0.0009,0.0052,0.0000,22.8800
24917962.0000,0.0225,0.0118,9.7869,0.0009,0.0052,0.0000,22.8800
24940962.0000,0.0025,-0.0682,9.7769,0.0009,0.0052,0.0000,22.9300
24963962.0000,-0.0475,0.0118,9.7969,0.0009,0.0052,0.0000,22.8400
24986962.0000,-0.0275,0.0018,9.8469,0.0009,-0.0048,0.0000,22.9300
25009962.0000,-0.0175,0.0018,9.8369,0.0009,-0.0048,0.0000,22.9300
25032962.0000,0.0325,-0.0182,9.8369,-0.0091,-0.0048,0.0000,22.8800
25055962.0000,-0.0275,0.0018,9.8069,0.0009,0.0052,0.0000,22.8800
25078962.0000,0.0225,-0.0182,9.7969,0.0009,0.0052,0.0000,22.8800
25101962.0000,0.0025,0.0018,9.8669,0.0009,0.0052,0.0000,22.7900
25124962.0000,0.0025,-0.0382,9.7469,0.0009,-0.0048,0.0000,22.8400
25147962.0000,-0.0375,0.0118,9.8769,0.0009,-0.0048,0.0000,22.8400
25170962.0000,0.0025,0.0418,9.7769,0.0009,0.0052,0.0000,22.8400
25193962.0000,0.0525,0.0218,9.8069,0.0009,0.0052,0.0000,22.8400
25216962.0000,0.0025,0.0118,9.8169,0.0009,0.0052,0.0000,22.8800
25239962.0000,0.0125,-0.0482,9.8369,0.0009,0.0052,0.0000,22.8800
25262962.0000,0.0225,-0.0482,9.7769,0.0009,-0.0048,0.0000,22.8800
25285962.0000,-0.0175,-0.0182,9.8369,0.0009,-0.0048,0.0000,22.7900
25308962.0000,0.0325,-0.0282,9.7269,0.0009,0.0052,0.0000,22.7900
25331962.0000,0.0425,-0.0082,9.8469,0.0009,0.0052,0.0000,22.9300
25354962.0000,-0.0175,-0.0182,9.8369,0.0009,0.0052,0.0000,22.8400
25377962.0000,-0.0075,0.0418,9.7169,0.0009,0.0052,0.0000,22.8400
25400962.0000,0.0125,0.0218,9.8169,0.0009,-0.0048,0.0000,22.8800
25423962.0000,0.0625,0.0018,9.7669,0.0009,-0.0048,0.0000,22.8800
25446962.0000,-0.0175,-0.0182,9.7869,0.0009,0.0052,0.0000,22.7900
25469962.0000,0.0125,0.0318,9.7769,0.0009,-0.0048,0.0000,22.8800
25492962.0000,-0.0075,-0.0182,9.8369,0.0009,-0.0048,0.0000,22.9300
25515962.0000,-0.0475,0.0018,9.8269,0.0009,0.0052,0.0000,22.8400
25538962.0000,0.0125,-0.0282,9.8269,0.0009,-0.0048,0.0000,22.9300
25561962.0000,0.0425,-0.0182,9.6969,0.0009,-0.0048,0.0000,22.9300
25584962.0000,0.0125,-0.0182,9.8269,0.0009,-0.0048,0.0000,22.8800
25607962.0000,-0.0075,0.0018,9.8369,0.0009,-0.0048,0.0000,22.8800
25630962.0000,0.0125,0.0218,9.8969,0.0009,-0.0048,0.0000,22.8800
25653962.0000,0.0825,-0.0382,9.7869,0.0009,-0.0048,0.0000,22.8800
25676962.0000,0.0625,0.0318,9.8469,0.0009,-0.0048,0.0000,22.9300
25699962.0000,0.0525,-0.0582,9.7069,0.0009,-0.0048,0.0000,22.8400
25722962.0000,0.0325,0.0618,9.8269,0.0009,0.0052,0.0000,22.8400
25745962.0000,0.0225,-0.0482,9.7869,0.0009,0.0052,0.0000,22.8400
25768962.0000,0.0025,-0.0682,9.8069,0.0009,0.0052,0.0000,22.8800
25791962.0000,-0.0575,0.0218,9.8069,0.0009,-0.0048,0.0000,22.8800
25814962.0000,-0.0175,0.0318,9.8469,0.0009,0.0052,0.0000,22.7900
25837962.0000,-0.0375,0.0518,9.8069,0.0009,-0.0048,0.0000,22.8800
25860962.0000,0.0325,0.0418,9.7769,0.0009,0.0052,0.0000,22.8400
25883962.0000,-0.0175,-0.0082,9.8069,0.0009,-0.0048,0.0000,22.8400
25906962.0000,0.0425,-0.0082,9.8269,0.0009,-0.0048,0.0000,22.8400
25929962.0000,-0.0375,0.0618,9.8569,0.0009,-0.0048,0.0000,22.8400
25952962.0000,0.0125,0.0918,9.8169,0.0009,-0.0048,0.0000,22.7900
25975962.0000,-0.0075,0.0418,9.7869,0.0009,0.0052,0.0000,22.8800
25998962.0000,0.0525,-0.0582,9.8369,0.0009,-0.0048,0.0000,22.7900
26021962.0000,-0.0175,0.0118,9.8369,0.0009,-0.0048,0.0000,22.7900
26044962.0000,0.0125,-0.0082,9.6969,0.0009,0.0052,0.0000,22.7900
26067962.0000,0.0525,-0.0082,9.7969,0.0009,-0.0048,0.0000,22.7400
26090962.0000,-0.0375,-0.0182,9.8169,0.0009,0.0052,0.0000,22.9300
26113962.0000,0.0225,0.0718,9.8369,0.0009,0.0052,0.0000,22.9300
26136962.0000,-0.0375,-0.0182,9.8569,0.0009,0.0052,0.0000,22.8800
26159962.0000,-0.0175,0.0418,9.8469,0.0009,-0.0048,0.0000,22.8800
26182962.0000,-0.0175,-0.0182,9.7969,0.0009,-0.0048,0.0000,22.8800
26205962.0000,-0.0175,-0.0182,9.8569,0.0009,0.0052,0.0000,22.8800
26228962.0000,-0.0175,-0.0482,9.8669,0.0009,0.0052,0.0000,22.8400
26251962.0000,0.0025,0.0118,9.7769,0.0009,0.0052,0.0000,22.9300
26274962.0000,0.0025,0.0418,9.7869,0.0009,-0.0048,0.0000,22.9300
26297962.0000,-0.0175,0.0518,9.8269,0.0009,-0.0048,0.0000,22.8400
26320962.0000,-0.0275,0.0118,9.8569,0.0009,0.0052,0.0000,22.8800
26343962.0000,-0.0175,-0.0082,9.7869,0.0009,-0.0048,0.0000,22.8800
26366962.0000,-0.0175,0.0118,9.7969,0.0009,-0.0048,0.0000,22.9800
26389962.0000,0.0025,-0.0282,9.8069,-0.0091,0.0052,0.0000,22.8800
26412962.0000,0.0525,0.0218,9.7369,0.0009,-0.0048,0.0000,22.8400
26435962.0000,0.0025,0.0218,9.7869,0.0009,-0.0048,0.0000,22.8400
26458962.0000,-0.0075,0.0418,9.8469,0.0009,-0.0048,0.0000,22.8400
26481962.0000,-0.0275,0.0318,9.8769,0.0009,-0.0048,0.0000,22.9300
26504962.0000,-0.0175,0.0218,9.8569,0.0009,0.0052,0.0000,22.8800
26527962.0000,0.0025,0.0018,9.8669,0.0009,-0.0048,0.0000,22.8800
26550962.0000,0.0325,0.0318,9.8069,0.0009,0.0052,0.0000,22.8800
26573962.0000,0.0025,0.0118,9.8169,-0.0091,0.0052,0.0000,22.7900
26596962.0000,0.0125,0.0018,9.7969,-0.0091,-0.0048,0.0000,22.8400
26619962.0000,0.0125,0.0018,9.7969,0.0009,-0.0048,0.0000,22.9300
26642962.0000,0.0425,0.0318,9.7569,0.0009,0.0052,0.0000,22.8400
26665962.0000,-0.0175,0.0518,9.7869,0.0009,0.0052,0.0000,22.9300
26688962.0000,0.0125,-0.0282,9.7669,0.0009,-0.0048,0.0000,22.8800
26711962.0000,0.0025,0.0518,9.7969,0.0009,-0.0048,0.0000,22.8800
26734962.0000,-0.0075,0.0218,9.7269,0.0009,-0.0048,0.0000,22.8800
26757962.0000,-0.0375,0.0218,9.7769,-0.0091,0.0052,0.0000,22.9800
26780962.0000,0.0225,-0.0082,9.7569,0.0009,-0.0048,0.0000,22.7900
26803962.0000,-0.0175,0.0018,9.8169,0.0009,-0.0048,0.0000,22.8400
26826962.0000,0.0225,-0.0182,9.7969,0.0009,0.0052,0.0000,22.9300
26849962.0000,0.0125,-0.0382,9.8169,0.0009,0.0052,0.0000,22.8400
26872962.0000,0.0325,-0.0482,9.9169,0.0009,-0.0048,0.0000,22.8800
26895962.0000,-0.0375,-0.0682,9.7969,0.0009,0.0052,0.0000,22.8800
26918962.0000,0.0025,0.0118,9.8169,0.0009,-0.0048,0.0000,22.8800
26941962.0000,0.0225,0.0718,9.7969,0.0009,-0.0048,0.0000,22.8800
26964962.0000,-0.0575,0.0518,9.7969,0.0009,0.0052,0.0000,22.9300
26987962.0000,0.0125,0.0218,9.7469,0.0009,-0.0048,0.0000,22.9300
27010962.0000,0.0125,0.0018,9.8169,0.0009,0.0052,0.0000,22.9300
27033962.0000,-0.0275,-0.0382,9.7269,0.0009,-0.0048,0.0000,22.9300
27056962.0000,-0.0075,0.0218,9.8469,0.0009,0.0052,0.0000,22.9800
27079962.0000,0.0125,-0.0282,9.8969,0.0009,0.0052,0.0000,22.8800
27102962.0000,-0.0075,-0.0282,9.8469,0.0009,-0.0048,0.0000,22.8800
27125962.0000,-0.0075,0.0118,9.7969,0.0009,0.0052,0.0000,22.7900
27148962.0000,-0.0175,0.0218,9.8069,0.0009,-0.0048,0.0000,22.8400
27171962.0000,0.0125,-0.0282,9.8169,0.0009,0.0052,0.0000,22.8400
27194962.0000,0.0125,-0.0282,9.8569,0.0009,-0.0048,0.0000,22.9300
27217962.0000,0.0525,-0.0282,9.7769,0.0009,0.0052,0.0000,22.8400
27240962.0000,0.0225,0.0118,9.8169,0.0009,-0.0048,0.0000,22.8800
27263962.0000,-0.0175,-0.0382,9.7769,0.0009,0.0052,0.0000,22.9800
27286962.0000,0.0325,0.0418,9.7869,0.0009,-0.0048,0.0000,22.8800
27309962.0000,0.0125,-0.0182,9.7569,0.0009,0.0052,0.0000,22.7900
27332962.0000,0.0125,-0.0082,9.8669,0.0009,0.0052,0.0000,22.8400
27355962.0000,-0.0075,0.0118,9.8069,0.0009,0.0052,0.0000,22.8400
27378962.0000,0.0525,0.0218,9.7269,0.0009,-0.0048,0.0000,23.0200
27401962.0000,0.0025,-0.0282,9.7969,0.0009,-0.0048,0.0000,22.9300
27424962.0000,0.0225,-0.0482,9.8269,0.0009,-0.0048,0.0000,22.8800
27447962.0000,0.0125,-0.0082,9.8269,0.0009,-0.0048,0.0000,22.8800
27470962.0000,0.0125,-0.0282,9.8269,0.0009,0.0052,0.0000,22.9800
27493962.0000,0.0525,0.0018,9.8169,0.0009,0.0052,0.0000,22.9800
27516962.0000,-0.0175,0.0518,9.8469,0.0009,0.0052,0.0000,22.8800
27539962.0000,-0.0075,-0.0382,9.8569,0.0009,-0.0048,0.0000,22.9300
27562962.0000,-0.0075,-0.0082,9.8169,0.0009,0.0052,0.0000,22.9300
27585962.0000,0.0225,0.0218,9.8569,0.0009,-0.0048,0.0000,22.9300
27608962.0000,0.0125,0.0818,9.7469,0.0009,0.0052,0.0000,22.9800
27631962.0000,0.0225,0.0118,9.8469,-0.0091,-0.0048,0.0000,22.8800
27654962.0000,-0.0175,0.0018,9.8069,0.0009,0.0052,0.0000,22.8800
27677962.0000,0.0425,-0.0282,9.7769,0.0009,-0.0048,0.0000,22.9800
27700962.0000,0.0625,-0.0082,9.7269,0.0009,-0.0048,0.0000,22.9300
27723962.0000,0.0325,0.0318,9.8269,0.0009,-0.0048,0.0000,22.8400
27746962.0000,0.0225,-0.0282,9.7969,0.0009,0.0052,0.0000,22.9300
27769962.0000,-0.0175,0.0418,9.8569,0.0009,0.0052,0.0000,22.8400
27792962.0000,0.0325,0.0118,9.8069,0.0009,-0.0048,0.0000,22.8800
27815962.0000,-0.0175,-0.0582,9.8169,0.0009,-0.0048,0.0000,22.8800
27838962.0000,-0.0075,-0.0382,9.8269,0.0009,0.0052,0.0000,22.8800
27861962.0000,-0.0275,0.0118,9.8169,0.0009,0.0052,0.0000,22.8800
27884962.0000,0.0025,0.0018,9.8269,0.0009,0.0052,0.0000,22.8400
27907962.0000,-0.0175,0.0018,9.8169,0.0009,0.0052,0.0000,22.9300
27930962.0000,-0.0275,-0.0382,9.7769,0.0009,0.0052,0.0000,22.9300
27953962.0000,-0.0275,0.0618,9.8569,0.0009,-0.0048,0.0000,22.9300
27976962.0000,-0.0175,0.0018,9.8869,0.0009,-0.0048,0.0000,22.7900
27999962.0000,-0.0075,-0.0482,9.7669,0.0009,-0.0048,0.0000,22.7900
28022962.0000,-0.0875,-0.0482,9.7969,0.0009,0.0052,0.0000,22.8800
28045962.0000,0.0225,-0.0082,9.8269,-0.0091,0.0052,0.0000,22.7900
28068962.0000,0.0325,-0.0182,9.8669,0.0009,-0.0048,0.0000,22.9300
28091962.0000,0.0125,0.0418,9.7869,0.0009,0.0052,0.0000,22.8400
28114962.0000,0.0325,0.0118,9.8269,0.0009,-0.0048,0.0000,22.9300
28137962.0000,0.0425,0.0218,9.7469,0.0009,-0.0048,0.0000,22.8400
28160962.0000,0.0425,0.0218,9.8369,0.0009,-0.0048,0.0000,22.8800
28183962.0000,0.0625,-0.0082,9.8269,0.0009,-0.0048,0.0000,22.8800
28206962.0000,0.0125,0.0418,9.8069,0.0009,0.0052,0.0000,22.9800
28229962.0000,0.0025,0.0618,9.8069,0.0009,0.0052,0.0000,22.8800
28252962.0000,-0.0375,0.0318,9.8169,0.0009,0.0052,0.0000,22.8800
28275962.0000,0.0025,-0.0382,9.7769,0.0009,-0.0048,0.0000,22.8400
28298962.0000,0.0125,-0.0282,9.7269,-0.0091,0.0052,0.0000,22.9300
28321962.0000,-0.0275,0.1018,9.6569,0.0009,-0.0048,0.0000,22.8400
28344962.0000,-0.0375,-0.0382,9.6169,0.0009,0.0052,0.0000,22.6900
28367962.0000,0.0125,0.0818,9.6669,0.0009,0.0052,0.0000,22.8800
28390962.0000,0.0025,-0.0282,9.8069,-0.0091,-0.0048,0.0000,22.9800
28413962.0000,0.0225,0.0218,9.6869,0.0009,0.0052,0.0000,22.8800
28436962.0000,0.0525,0.0518,9.7969,-0.0091,-0.0048,0.0000,22.9300
28459962.0000,0.0825,-0.0582,9.8169,0.0009,0.0052,0.0000,22.9300
28482962.0000,-0.0375,0.0318,9.8169,0.0009,-0.0048,0.0000,22.8400
28505962.0000,-0.0175,-0.0282,9.7669,-0.0091,-0.0048,0.0000,22.9300
28528962.0000,0.0125,-0.0482,9.9169,0.0009,-0.0048,0.0000,22.8800
28551962.0000,0.0225,-0.0282,9.7969,0.0009,0.0052,0.0000,22.9800
28574962.0000,0.0525,0.0218,9.8469,0.0009,0.0052,0.0000,22.7900
28597962.0000,0.0425,0.0618,9.8069,0.0009,-0.0048,0.0000,22.8800
28620962.0000,0.0125,0.0218,9.7869,-0.0091,-0.0048,0.0000,22.8400
28643962.0000,0.0125,-0.0082,9.8269,0.0009,-0.0048,0.0000,22.9300
28666962.0000,0.0225,-0.0382,9.8569,0.0009,-0.0048,0.0000,22.8400
28689962.0000,0.0425,0.0318,9.7569,0.0009,-0.0048,0.0000,23.0200
28712962.0000,-0.0275,0.0818,9.8269,0.0009,0.0052,0.0000,22.8800
28735962.0000,0.0125,-0.0282,9.8069,0.0009,-0.0048,0.0000,22.7900
28758962.0000,0.0025,0.0318,9.7669,0.0009,-0.0048,0.0000,22.8800
28781962.0000,0.0325,0.0518,9.7969,0.0009,0.0052,0.0000,22.8800
28804962.0000,-0.0175,-0.0182,9.7369,0.0009,-0.0048,0.0000,22.9300
28827962.0000,0.0125,0.0218,9.8569,0.0009,-0.0048,0.0000,22.9300
28850962.0000,-0.0075,-0.1082,9.8369,0.0009,-0.0048,0.0000,22.8400
28873962.0000,-0.0275,0.0418,9.7369,0.0009,-0.0048,0.0000,22.9300
28896962.0000,-0.0275,0.0018,9.8469,0.0009,0.0052,0.0000,22.7900
28919962.0000,0.0225,-0.0582,9.7869,0.0009,-0.0048,0.0000,22.7900
28942962.0000,-0.0275,0.0018,9.7369,0.0009,-0.0048,0.0000,22.8800
28965962.0000,0.0125,0.0418,9.7869,0.0009,-0.0048,0.0000,22.8800
28988962.0000,0.0225,-0.0482,9.7369,0.0009,-0.0048,0.0000,22.8800
29011962.0000,0.0025,0.0718,9.7069,0.0009,0.0052,0.0000,22.9300
29034962.0000,0.0025,0.0418,9.8869,0.0009,0.0052,0.0000,22.8400
29057962.0000,-0.0175,-0.0182,9.7569,0.0009,-0.0048,0.0000,22.8400
29080962.0000,-0.0375,0.0218,9.8369,0.0009,-0.0048,0.0000,22.8800
29103962.0000,0.0025,0.0518,9.7969,0.0009,0.0052,0.0000,22.8800
29126962.0000,-0.0075,0.0218,9.8869,0.0009,0.0052,0.0000,22.9800
29149962.0000,-0.0075,0.0518,9.7869,0.0009,-0.0048,0.0000,22.9800
29172962.0000,0.0225,-0.0482,9.7069,0.0009,0.0052,0.0000,22.8400
29195962.0000,-0.0475,-0.0382,9.8469,-0.0091,-0.0048,0.0000,22.9300
29218962.0000,-0.0075,-0.0082,9.7569,0.0009,-0.0048,0.0000,22.8400
29241962.0000,-0.0175,-0.0082,9.7869,0.0009,0.0052,0.0000,22.9300
29264962.0000,0.0225,-0.0082,9.8469,0.0009,-0.0048,0.0000,22.8800
29287962.0000,0.0425,0.0118,9.8569,0.0009,-0.0048,0.0000,22.7900
29310962.0000,-0.0175,0.0418,9.8269,0.0009,-0.0048,0.0000,22.8800
29333962.0000,0.0025,0.0518,9.8969,0.0009,0.0052,0.0000,22.8800
29356962.0000,0.0125,0.0018,9.8769,0.0009,-0.0048,0.0000,22.9300
29379962.0000,0.0225,-0.0482,9.8369,0.0009,-0.0048,0.0000,22.9300
29402962.0000,-0.0375,0.0018,9.7769,0.0009,-0.0048,0.0000,22.9300
29425962.0000,-0.0175,-0.0382,9.7969,0.0009,-0.0048,0.0000,22.9300
29448962.0000,0.0325,0.0218,9.7869,0.0009,0.0052,0.0000,22.9800
29471962.0000,0.0625,-0.0182,9.8369,-0.0091,-0.0048,0.0000,22.8800
29494962.0000,0.0125,-0.0682,9.7869,0.0009,-0.0048,0.0000,22.8800
29517962.0000,0.0225,-0.0182,9.7969,0.0009,-0.0048,0.0000,22.8800
29540962.0000,0.0225,-0.0182,9.8169,0.0009,-0.0048,0.0000,22.8400
29563962.0000,0.0625,-0.0282,9.7669,0.0009,0.0052,0.0000,22.8400
29586962.0000,-0.0775,-0.0382,9.8069,0.0009,0.0052,0.0000,22.9300
29609962.0000,0.0225,0.0318,9.7869,0.0009,0.0052,0.0000,22.7400
29632962.0000,-0.0075,-0.0282,9.7969,0.0009,-0.0048,0.0000,22.8800
29655962.0000,0.0025,-0.0082,9.7969,0.0009,-0.0048,0.0000,22.8800
29678962.0000,0.0025,-0.0182,9.7169,0.0009,-0.0048,0.0000,22.8800
29701962.0000,-0.0075,0.0018,9.8969,0.0009,0.0052,0.0000,22.8800
29724962.0000,0.0025,0.0318,9.8169,0.0009,0.0052,0.0000,22.7900
29747962.0000,-0.0175,-0.0082,9.8169,0.0009,-0.0048,0.0000,22.8400
29770962.0000,0.0225,0.0118,9.8269,0.0009,-0.0048,0.0000,22.9300
29793962.0000,-0.0475,0.0618,9.8569,0.0009,-0.0048,0.0000,22.8400
29816962.0000,-0.0075,0.0118,9.8569,0.0009,0.0052,0.0000,22.8800
29839962.0000,-0.0275,0.0118,9.8769,0.0009,0.0052,0.0000,22.8800
29862962.0000,-0.0475,0.0918,9.8569,0.0009,-0.0048,0.0000,22.8800
29885962.0000,0.0125,-0.0182,9.8069,0.0009,-0.0048,0.0000,22.8800
29908962.0000,-0.0375,-0.0482,9.7669,0.0009,-0.0048,0.0000,22.8400
29931962.0000,-0.0075,-0.0082,9.7569,0.0009,-0.0048,0.0000,22.8400
29954962.0000,-0.0275,0.0418,9.6869,0.0009,0.0052,0.0000,22.9300
29977962.0000,0.0725,-0.0182,9.7969,0.0009,-0.0048,0.0000,22.9300
30000962.0000,0.0125,-0.0382,9.7569,0.0009,-0.0048,0.0000,22.8800
30023962.0000,-0.0375,0.0418,9.8769,0.0009,0.0052,0.0000,22.8800
30046962.0000,-0.0575,-0.0482,9.7769,0.0009,0.0052,0.0000,22.9800
30069962.0000,-0.0275,0.0518,9.8069,0.0009,-0.0048,0.0000,22.9800
30092962.0000,-0.0875,0.0518,9.7669,0.0009,-0.0048,0.0000,22.8400
30115962.0000,0.0025,0.0018,9.8569,0.0009,0.0052,0.0000,22.8400
30138962.0000,-0.0275,0.0118,9.7869,0.0009,-0.0048,0.0000,22.8400
30161962.0000,-0.0075,-0.0482,9.8169,0.0009,0.0052,0.0000,22.9300
30184962.0000,-0.0075,0.0118,9.8069,0.0009,0.0052,0.0000,22.8800
30207962.0000,-0.0075,-0.0082,9.7969,0.0009,-0.0048,0.0000,22.8800
30230962.0000,0.0225,0.0018,9.8069,0.0009,-0.0048,0.0000,22.9800
30253962.0000,0.0525,-0.0182,9.7969,0.0009,-0.0048,0.0000,22.8800
30276962.0000,0.0825,-0.0582,9.8369,0.0009,-0.0048,0.0000,22.9300
30299962.0000,0.0025,-0.0282,9.7769,0.0009,-0.0048,0.0000,22.9300
30322962.0000,0.0325,-0.0182,9.7969,0.0009,-0.0048,0.0000,22.9300
30345962.0000,0.0025,0.0118,9.8069,0.0009,-0.0048,0.0000,22.9300
30368962.0000,0.0125,0.0218,9.8069,0.0009,-0.0048,0.0000,22.8800
30391962.0000,-0.0275,0.0118,9.7969,0.0009,-0.0048,0.0000,22.7900
30414962.0000,-0.0275,0.0018,9.8069,0.0009,-0.0048,0.0000,22.8800
30437962.0000,-0.0175,0.0318,9.7669,0.0009,0.0052,0.0000,22.8800
30460962.0000,-0.0375,-0.0182,9.8569,0.0009,0.0052,0.0000,22.7900
30483962.0000,0.0325,-0.0582,9.8369,0.0009,0.0052,0.0000,22.8400
30506962.0000,-0.0275,0.0618,9.9369,0.0009,0.0052,0.0000,22.9300
30529962.0000,0.0225,0.0018,9.7769,0.0009,-0.0048,0.0000,22.9300
30552962.0000,-0.0275,-0.0182,9.8769,0.0009,-0.0048,0.0000,22.8800
30575962.0000,-0.0075,0.0118,9.7769,0.0009,0.0052,0.0000,22.7900
30598962.0000,0.0225,0.0518,9.8069,0.0009,0.0052,0.0000,22.8800
30621962.0000,0.0025,0.0618,9.9069,0.0009,0.0052,0.0000,22.8800
30644962.0000,-0.0675,0.0518,9.8269,0.0009,-0.0048,0.0000,22.9300
30667962.0000,0.0025,0.0418,9.7069,0.0009,-0.0048,0.0000,22.9300
30690962.0000,0.0425,0.0118,9.7769,0.0009,0.0052,0.0000,22.9300
30713962.0000,-0.0175,-0.0182,9.7869,0.0009,0.0052,0.0000,22.8400
30736962.0000,-0.0875,-0.0082,9.7469,0.0009,0.0052,0.0000,22.9800
30759962.0000,0.0425,0.0518,9.8069,0.0009,-0.0048,0.0000,22.8800
30782962.0000,0.0125,0.0018,9.8169,0.0009,0.0052,0.0000,22.8800
30805962.0000,0.0025,-0.0282,9.7869,0.0009,0.0052,0.0000,22.8800
30828962.0000,-0.0375,-0.0882,9.7669,0.0009,-0.0048,0.0000,22.9300
30851962.0000,0.0725,0.0518,9.8269,0.0009,-0.0048,0.0000,22.9300
30874962.0000,-0.0075,-0.0282,9.9369,0.0009,0.0052,0.0000,22.8400
30897962.0000,0.0625,-0.0182,9.8469,0.0009,-0.0048,0.0000,22.8400
30920962.0000,0.0325,-0.0082,9.8469,0.0009,0.0052,0.0000,22.8800
30943962.0000,0.0225,-0.0582,9.7869,-0.0091,-0.0048,0.0000,22.8800
30966962.0000,0.0025,0.0118,9.8069,0.0009,0.0052,0.0000,22.8800
30989962.0000,0.0025,-0.0182,9.6469,-0.0091,0.0052,0.0000,22.8800
31012962.0000,-0.0175,-0.0082,9.8169,0.0009,0.0052,0.0000,22.8400
31035962.0000,0.0425,-0.0182,9.8069,0.0009,-0.0048,0.0000,22.8400
31058962.0000,-0.0075,0.0118,9.8569,0.0009,0.0052,0.0000,22.8400
31081962.0000,-0.0275,-0.0182,9.7669,0.0009,-0.0048,0.0000,22.8400
31104962.0000,0.0225,0.0318,9.8169,0.0009,-0.0048,0.0000,22.8800
31127962.0000,0.0225,0.0318,9.7269,0.0009,0.0052,0.0000,22.8800
31150962.0000,0.0425,-0.0782,9.8369,-0.0091,0.0052,0.0000,22.8800
31173962.0000,-0.0375,-0.0482,9.8269,0.0009,0.0052,0.0000,22.8800
31196962.0000,0.0325,0.0018,9.7269,0.0009,0.0052,0.0000,22.7900
31219962.0000,0.0125,0.0418,9.7769,0.0009,-0.0048,0.0000,22.9300
31242962.0000,0.0625,0.0018,9.8169,0.0009,-0.0048,0.0000,22.9300
31265962.0000,0.0125,-0.0182,9.7269,0.0009,0.0052,0.0000,22.9300
31288962.0000,-0.0175,-0.0082,9.8169,-0.0091,-0.0048,0.0000,22.8800
31311962.0000,-0.0175,0.0118,9.8869,0.0009,0.0052,0.0000,22.8800
31334962.0000,0.0125,0.0018,9.7369,0.0009,-0.0048,0.0000,22.8800
31357962.0000,0.0225,-0.0582,9.8469,0.0009,-0.0048,0.0000,22.7900
31380962.0000,-0.0175,-0.0282,9.8569,0.0009,0.0052,0.0000,22.8400
31403962.0000,-0.0175,-0.0182,9.8369,0.0009,0.0052,0.0000,22.8400
31426962.0000,-0.0175,0.0418,9.7869,0.0009,0.0052,0.0000,22.8400
31449962.0000,-0.0075,0.0318,9.8069,0.0009,0.0052,0.0000,22.8400
31472962.0000,0.0025,-0.0082,9.9169,-0.0091,-0.0048,0.0000,22.9800
31495962.0000,-0.0575,0.0118,9.7969,0.0009,-0.0048,0.0000,22.7900
31518962.0000,0.0325,0.0118,9.8069,0.0009,0.0052,0.0000,22.9800
31541962.0000,0.0125,0.0118,9.9269,0.0009,0.0052,0.0000,22.8800
31564962.0000,0.0225,0.0518,9.8669,0.0009,-0.0048,0.0000,22.9300
31587962.0000,-0.0175,0.0018,9.7869,0.0009,0.0052,0.0000,22.8400
31610962.0000,-0.0075,-0.0082,9.7969,0.0009,0.0052,0.0000,22.8400
31633962.0000,0.0225,0.0018,9.7869,0.0009,0.0052,0.0000,22.9300
31656962.0000,-0.0275,0.0018,9.7869,0.0009,0.0052,0.0000,22.9800
31679962.0000,-0.0175,0.0218,9.8269,0.0009,0.0052,0.0000,22.8800
31702962.0000,-0.0475,-0.0182,9.7769,0.0009,0.0052,0.0000,22.8800
31725962.0000,0.0025,0.0018,9.7869,0.0009,-0.0048,0.0000,22.8800
31748962.0000,0.0425,-0.0182,9.8569,0.0009,-0.0048,0.0000,22.8400
31771962.0000,0.0125,-0.0182,9.8469,0.0009,-0.0048,0.0000,22.8400
31794962.0000,-0.0275,0.0518,9.7569,0.0009,0.0052,0.0000,22.8400
31817962.0000,-0.0075,0.0018,9.9169,0.0009,-0.0048,0.0000,22.8400
31840962.0000,-0.0175,0.0418,9.8369,0.0009,-0.0048,0.0000,22.8800
31863962.0000,0.0525,0.0118,9.8069,-0.0091,0.0052,0.0000,22.7900
31886962.0000,-0.0275,0.0118,9.7569,0.0009,-0.0048,0.0000,22.9800
31909962.0000,0.0025,-0.0082,9.8069,0.0009,0.0052,0.0000,22.9800
31932962.0000,0.0425,-0.0082,9.8469,0.0009,0.0052,0.0000,22.8800
31955962.0000,-0.0075,0.0518,9.8469,0.0009,0.0052,0.0000,22.9300
31978962.0000,0.0225,-0.0382,9.8769,-0.0091,-0.0048,0.0000,22.9300
32001962.0000,-0.0075,-0.0282,9.8769,0.0009,-0.0048,0.0000,22.8400
32024962.0000,0.0225,-0.0382,9.8669,0.0009,-0.0048,0.0000,22.7900
32047962.0000,-0.0075,-0.0282,9.7769,-0.0091,0.0052,0.0000,22.8800
32070962.0000,0.0125,-0.0382,9.8769,0.0009,0.0052,0.0000,22.8800
32093962.0000,-0.0075,0.0218,9.7369,0.0009,0.0052,0.0000,22.8800
32116962.0000,0.0025,0.0218,9.8469,0.0009,-0.0048,0.0000,22.8400
32139962.0000,-0.0275,0.0118,9.8269,-0.0091,-0.0048,0.0000,22.9300
32162962.0000,-0.0175,-0.0582,9.8669,0.0009,-0.0048,0.0000,22.8400
32185962.0000,-0.0175,-0.0182,9.8369,0.0009,-0.0048,0.0000,22.8400
32208962.0000,0.0225,0.0418,9.7369,0.0009,-0.0048,0.0000,22.8800
32231962.0000,0.0125,0.0118,9.7869,0.0009,0.0052,0.0000,22.8800
32254962.0000,0.0525,0.0218,9.7769,0.0009,-0.0048,0.0000,22.8800
32277962.0000,0.0025,-0.0682,9.8169,-0.0091,-0.0048,0.0000,22.9800
32300962.0000,-0.0375,0.0518,9.7169,0.0009,-0.0048,0.0000,22.8400
32323962.0000,0.0025,-0.0082,9.7169,0.0009,0.0052,0.0000,22.8400
32346962.0000,-0.0075,0.0718,9.7869,-0.0091,-0.0048,0.0000,22.8400
32369962.0000,0.0425,0.0318,9.7569,0.0009,-0.0048,0.0000,22.9300
32392962.0000,-0.0175,-0.0282,9.8369,0.0009,0.0052,0.0000,22.9800
32415962.0000,0.0525,-0.0282,9.8769,0.0009,-0.0048,0.0000,22.9800
32438962.0000,0.0225,-0.0082,9.8069,0.0009,-0.0048,0.0000,22.8800
32461962.0000,0.0025,-0.0182,9.7569,0.0009,-0.0048,0.0000,22.7900
32484962.0000,-0.0275,-0.0182,9.8269,0.0009,0.0052,0.0000,22.8400
32507962.0000,0.0025,0.0018,9.7869,0.0009,0.0052,0.0000,22.9300
32530962.0000,0.0325,-0.0082,9.7369,0.0009,0.0052,0.0000,22.8400
32553962.0000,-0.0175,-0.0482,9.8069,0.0009,0.0052,0.0000,22.9300
32576962.0000,-0.0575,-0.0082,9.8969,-0.0091,0.0052,0.0000,22.8800
32599962.0000,0.0525,0.0518,9.8169,0.0009,-0.0048,0.0000,22.8800
32622962.0000,-0.0375,0.0118,9.8569,0.0009,0.0052,0.0000,22.9800
32645962.0000,-0.0375,-0.0082,9.7969,0.0009,-0.0048,0.0000,22.9800
32668962.0000,0.0125,-0.1082,9.7569,0.0009,-0.0048,0.0000,22.8800
32691962.0000,-0.0075,0.0318,9.7869,-0.0091,0.0052,0.0000,22.8400
32714962.0000,0.0425,-0.0182,9.8169,0.0009,0.0052,0.0000,22.9300
32737962.0000,0.0125,0.0018,9.8769,0.0009,0.0052,0.0000,22.9300
32760962.0000,0.0225,0.0018,9.8769,0.0009,0.0052,0.0000,22.8800
32783962.0000,-0.0175,0.0018,9.7869,0.0009,0.0052,0.0000,22.8800
32806962.0000,-0.0775,0.0418,9.8269,0.0009,0.0052,0.0000,22.9800
32829962.0000,0.0125,0.0018,9.7969,0.0009,-0.0048,0.0000,22.8800
32852962.0000,-0.0275,-0.0082,9.8469,0.0009,-0.0048,0.0000,22.9300
32875962.0000,-0.0375,-0.0182,9.7869,0.0009,0.0052,0.0000,22.8400
32898962.0000,-0.0075,0.0018,9.8469,0.0009,0.0052,0.0000,22.9300
32921962.0000,0.0025,0.0418,9.7369,0.0009,0.0052,0.0000,22.8400
32944962.0000,0.0425,0.0618,9.7669,0.0009,-0.0048,0.0000,22.8800
32967962.0000,-0.0075,-0.0182,9.8769,0.0009,0.0052,0.0000,22.8800
32990962.0000,-0.0275,-0.0382,9.8369,0.0009,0.0052,0.0000,22.8800
33013962.0000,0.0325,-0.0182,9.7669,-0.0091,0.0052,0.0000,22.8800
33036962.0000,-0.0375,-0.0482,9.8669,0.0009,0.0052,0.0000,22.8400
33059962.0000,-0.0175,0.0318,9.8969,0.0009,-0.0048,0.0000,22.8400
33082962.0000,0.0625,0.0018,9.7769,0.0009,0.0052,0.0000,22.9300
33105962.0000,0.0725,-0.0182,9.8969,0.0009,0.0052,0.0000,22.9300
33128962.0000,-0.0575,0.0118,9.7869,0.0009,0.0052,0.0000,22.8800
33151962.0000,0.0425,0.0318,9.8069,0.0009,0.0052,0.0000,22.8800
33174962.0000,0.0525,0.0218,9.6869,0.0009,-0.0048,0.0000,22.8800
33197962.0000,-0.0175,0.0318,9.7569,0.0009,0.0052,0.0000,22.9800
33220962.0000,-0.0075,0.0618,9.8769,0.0009,0.0052,0.0000,22.9300
33243962.0000,0.0125,0.0018,9.8269,0.0009,0.0052,0.0000,22.9300
33266962.0000,0.0125,0.0118,9.7369,-0.0091,0.0052,0.0000,22.9300
33289962.0000,0.0425,-0.0082,9.8169,0.0009,0.0052,0.0000,22.9300
33312962.0000,-0.0175,-0.0182,9.8869,0.0009,-0.0048,0.0000,22.8800
33335962.0000,-0.0575,0.0118,9.8369,0.0009,-0.0048,0.0000,22.8800
33358962.0000,-0.0375,0.0618,9.8269,0.0009,-0.0048,0.0000,22.8800
33381962.0000,-0.0275,-0.0182,9.8069,0.0009,-0.0048,0.0000,22.8800
33404962.0000,0.0025,-0.0582,9.8869,0.0009,0.0052,0.0000,22.8800
33427962.0000,-0.0575,-0.0282,9.8169,0.0009,-0.0048,0.0000,22.9300
33450962.0000,-0.0175,0.0318,9.7869,0.0009,0.0052,0.0000,22.9300
33473962.0000,-0.0075,-0.0082,9.8169,0.0009,-0.0048,0.0000,22.9300
33496962.0000,0.0125,0.0618,9.7769,-0.0091,0.0052,0.0000,22.8800
33519962.0000,0.0025,-0.0282,9.7869,0.0009,0.0052,0.0000,22.8800
33542962.0000,0.0225,0.0218,9.8369,0.0009,0.0052,0.0000,22.8800
33565962.0000,-0.0175,0.0118,9.8669,-0.0091,0.0052,0.0000,22.9800
33588962.0000,0.0025,0.0018,9.8969,0.0009,-0.0048,0.0000,22.9300
33611962.0000,0.0125,0.0718,9.8769,0.0009,0.0052,0.0000,22.9300
33634962.0000,0.0225,-0.0282,9.6969,0.0009,0.0052,0.0000,22.8400
33657962.0000,0.0025,0.0218,9.8269,0.0009,-0.0048,0.0000,22.8400
33680962.0000,0.0825,0.0218,9.8469,0.0009,0.0052,0.0000,22.8800
33703962.0000,0.0425,0.0118,9.8269,0.0009,0.0052,0.0000,22.8800
33726962.0000,0.0125,-0.0282,9.8769,0.0009,-0.0048,0.0000,22.8800
33749962.0000,-0.0375,-0.0082,9.7969,0.0009,-0.0048,0.0000,22.9800
33772962.0000,-0.0075,-0.0682,9.7769,0.0009,-0.0048,0.0000,22.8400
33795962.0000,-0.0375,-0.0182,9.6669,0.0009,-0.0048,0.0000,22.9300
33818962.0000,-0.0175,-0.0082,9.7969,0.0009,-0.0048,0.0000,22.9300
33841962.0000,-0.0075,-0.0182,9.7469,0.0009,0.0052,0.0000,22.8400
33864962.0000,0.0225,-0.0282,9.8969,0.0009,-0.0048,0.0000,22.7900
33887962.0000,0.0025,0.0418,9.7669,-0.0091,0.0052,0.0000,22.8800
33910962.0000,0.0225,0.0318,9.7969,0.0009,0.0052,0.0000,22.8800
33933962.0000,0.0225,0.0118,9.7569,0.0009,-0.0048,0.0000,22.8800
33956962.0000,-0.0475,-0.0082,9.8769,0.0009,0.0052,0.0000,22.8400
33979962.0000,-0.0475,-0.0182,9.7269,0.0009,0.0052,0.0000,22.9300
34002962.0000,-0.0175,0.0118,9.7769,0.0009,0.0052,0.0000,22.9300
34025962.0000,0.0025,0.0618,9.8769,0.0009,0.0052,0.0000,22.8400
34048962.0000,-0.0375,0.0318,9.8069,0.0009,0.0052,0.0000,22.8800
34071962.0000,-0.0175,0.0118,9.8069,0.0009,-0.0048,0.0000,22.8800
34094962.0000,-0.0375,-0.0382,9.8569,0.0009,-0.0048,0.0000,22.8800
34117962.0000,0.0325,-0.0182,9.7869,0.0009,-0.0048,0.0000,22.8800
34140962.0000,-0.0575,-0.0182,9.8069,0.0009,0.0052,0.0000,22.8800
34163962.0000,0.0025,-0.0082,9.8369,-0.0091,-0.0048,0.0000,23.0200
34186962.0000,-0.0275,0.0418,9.8369,0.0009,0.0052,0.0000,22.9300
34209962.0000,0.0725,0.0318,9.7969,0.0009,-0.0048,0.0000,22.9300
34232962.0000,0.0625,-0.0382,9.7569,0.0009,0.0052,0.0000,22.9800
34255962.0000,-0.0475,0.0518,9.8469,0.0009,-0.0048,0.0000,22.8800
34278962.0000,-0.0275,-0.0182,9.7869,0.0009,-0.0048,0.0000,22.9800
34301962.0000,-0.0375,-0.0082,9.8269,0.0009,0.0052,0.0000,22.9800
34324962.0000,0.0125,0.0418,9.8069,0.0009,-0.0048,0.0000,22.9300
34347962.0000,0.0425,0.0318,9.8469,0.0009,0.0052,0.0000,22.9300
34370962.0000,-0.0475,-0.0182,9.7969,0.0009,-0.0048,0.0000,22.8400
34393962.0000,0.0125,-0.0082,9.8469,0.0009,-0.0048,0.0000,22.9300
34416962.0000,-0.0075,-0.0482,9.7769,0.0009,0.0052,0.0000,22.8800
34439962.0000,0.0125,0.0418,9.7669,0.0009,-0.0048,0.0000,22.7900
34462962.0000,-0.0175,0.0618,9.8869,-0.0091,-0.0048,0.0000,22.8800
34485962.0000,0.0325,-0.0082,9.8569,0.0009,-0.0048,0.0000,22.8800
34508962.0000,0.0025,0.0418,9.7869,-0.0091,0.0052,0.0000,22.8400
34531962.0000,0.0125,0.0118,9.7969,-0.0091,0.0052,0.0000,22.9300
34554962.0000,-0.0175,-0.0282,9.7669,0.0009,-0.0048,0.0000,22.9300
34577962.0000,0.0125,0.0018,9.8469,0.0009,0.0052,0.0000,22.9300
34600962.0000,-0.0075,-0.0082,9.8669,0.0009,0.0052,0.0000,22.8800
34623962.0000,-0.0375,0.0118,9.7669,-0.0091,-0.0048,0.0000,22.8800
34646962.0000,-0.0175,0.0418,9.6869,0.0009,0.0052,0.0000,22.9800
34669962.0000,0.0425,0.0018,9.7969,0.0009,-0.0048,0.0000,22.8800
34692962.0000,-0.0475,-0.0082,9.6869,0.0009,-0.0048,0.0000,22.8400
34715962.0000,-0.0575,-0.0182,9.7869,0.0009,-0.0048,0.0000,22.8400
34738962.0000,0.0325,-0.0082,9.7669,0.0009,0.0052,0.0000,22.9300
34761962.0000,0.0025,0.0118,9.7669,0.0009,0.0052,0.0000,22.9300
34784962.0000,-0.0175,0.0118,9.8569,0.0009,-0.0048,0.0000,22.8800
34807962.0000,-0.0075,0.0118,9.8169,0.0009,0.0052,0.0000,22.8800
34830962.0000,-0.0175,0.0218,9.7669,0.0009,0.0052,0.0000,22.8800
34853962.0000,0.0325,0.0018,9.8269,-0.0091,0.0052,0.0000,22.9800
34876962.0000,0.0025,0.0318,9.8869,0.0009,0.0052,0.0000,22.8800
34899962.0000,-0.0075,-0.0182,9.7869,0.0009,-0.0048,0.0000,22.9300
34922962.0000,0.0025,0.0018,9.7769,0.0009,-0.0048,0.0000,22.9300
34945962.0000,-0.0475,0.0218,9.8369,0.0009,0.0052,0.0000,22.8400
34968962.0000,-0.0075,-0.0282,9.8469,0.0009,0.0052,0.0000,22.8800
34991962.0000,-0.0075,0.0318,9.7669,0.0009,0.0052,0.0000,22.8800
35014962.0000,-0.0275,0.0318,9.7569,0.0009,0.0052,0.0000,22.8800
35037962.0000,0.0125,0.0418,9.7369,0.0009,-0.0048,0.0000,22.8800
35060962.0000,-0.0275,0.0818,9.7969,0.0009,-0.0048,0.0000,22.9300
35083962.0000,-0.0375,-0.0182,9.7869,0.0009,-0.0048,0.0000,23.0200
35106962.0000,-0.0075,0.0418,9.8369,0.0009,0.0052,0.0000,22.9300
35129962.0000,-0.0375,0.0518,9.7169,0.0009,-0.0048,0.0000,22.9300
35152962.0000,0.0125,-0.0282,9.8869,0.0009,0.0052,0.0000,22.8800
35175962.0000,0.0125,0.0318,9.7969,0.0009,-0.0048,0.0000,22.9800
35198962.0000,-0.0375,-0.0282,9.7369,0.0009,-0.0048,0.0000,22.8800
35221962.0000,-0.0075,-0.0082,9.7269,0.0009,-0.0048,0.0000,22.9800
35244962.0000,0.0025,-0.0282,9.8969,0.0009,0.0052,0.0000,22.9300
35267962.0000,-0.0475,0.0418,9.7769,0.0009,0.0052,0.0000,22.9300
35290962.0000,0.0025,0.0718,9.8269,0.0009,-0.0048,0.0000,22.9300
35313962.0000,-0.0375,-0.0482,9.8769,0.0009,0.0052,0.0000,22.9300
35336962.0000,0.0325,0.0118,9.8869,0.0009,0.0052,0.0000,22.8800
35359962.0000,0.0125,-0.0482,9.8169,0.0009,0.0052,0.0000,22.8800
35382962.0000,0.0225,-0.0482,9.7569,0.0009,-0.0048,0.0000,22.8800
35405962.0000,0.0225,-0.0082,9.8569,-0.0091,-0.0048,0.0000,22.8800
35428962.0000,0.0425,-0.0082,9.8569,0.0009,0.0052,0.0000,22.9300
35451962.0000,0.0025,0.0418,9.7569,0.0009,-0.0048,0.0000,22.9300
35474962.0000,0.0025,0.0218,9.7569,0.0009,0.0052,0.0000,22.8400
35497962.0000,0.0025,-0.0182,9.7769,0.0009,-0.0048,0.0000,22.8400
35520962.0000,0.0025,-0.0482,9.8469,0.0009,0.0052,0.0000,22.8800
35543962.0000,0.0325,-0.0382,9.8169,0.0009,-0.0048,0.0000,22.8800
35566962.0000,-0.0375,0.0218,9.7569,-0.0091,0.0052,0.0000,22.9800
35589962.0000,-0.0175,-0.0182,9.8469,0.0009,0.0052,0.0000,22.9800
35612962.0000,0.0125,-0.0182,9.8769,0.0009,0.0052,0.0000,22.9800
35635962.0000,0.0525,0.0218,9.8669,0.0009,-0.0048,0.0000,22.9300
35658962.0000,-0.0075,-0.0282,9.8369,0.0009,-0.0048,0.0000,22.8400
35681962.0000,-0.0075,-0.0082,9.8569,0.0009,-0.0048,0.0000,22.9300
35704962.0000,0.0125,-0.0482,9.7169,0.0009,0.0052,0.0000,22.7900
35727962.0000,0.0225,-0.0082,9.8669,0.0009,-0.0048,0.0000,22.8800
35750962.0000,0.0425,-0.0682,9.7869,0.0009,0.0052,0.0000,22.8800
35773962.0000,-0.0075,0.0718,9.8969,0.0009,-0.0048,0.0000,22.9800
35796962.0000,0.0325,0.0418,9.6969,0.0009,-0.0048,0.0000,22.9300
35819962.0000,0.0325,0.0418,9.8669,0.0009,-0.0048,0.0000,22.9300
35842962.0000,-0.0475,0.0018,9.7969,0.0009,-0.0048,0.0000,22.9300
35865962.0000,0.0425,-0.0482,9.8069,0.0009,0.0052,0.0000,22.8400
35888962.0000,-0.0675,0.0018,9.7969,0.0009,-0.0048,0.0000,22.8800
35911962.0000,-0.0375,-0.0182,9.8269,0.0009,-0.0048,0.0000,22.9800
35934962.0000,0.0625,-0.0182,9.8369,0.0009,-0.0048,0.0000,22.7900
35957962.0000,0.0425,-0.0182,9.8269,0.0009,0.0052,0.0000,22.7900
35980962.0000,0.0225,-0.0582,9.7369,-0.0091,0.0052,0.0000,23.0200
36003962.0000,-0.0175,0.0518,9.8069,0.0009,-0.0048,0.0000,22.9300
36026962.0000,0.0425,-0.0382,9.7269,0.0009,-0.0048,0.0000,22.8400
36049962.0000,0.0325,-0.0082,9.8669,0.0009,-0.0048,0.0000,22.9300
36072962.0000,-0.0375,0.0018,9.7669,0.0009,-0.0048,0.0000,22.8800
36095962.0000,0.0225,-0.0582,9.7869,0.0009,0.0052,0.0000,22.9800
36118962.0000,0.0225,-0.0282,9.8369,0.0009,-0.0048,0.0000,22.8800
36141962.0000,0.0025,-0.0082,9.8069,0.0009,0.0052,0.0000,22.9800
36164962.0000,-0.0175,0.0218,9.8369,0.0009,-0.0048,0.0000,22.8400
36187962.0000,-0.0175,-0.0282,9.8669,0.0009,-0.0048,0.0000,22.8400
36210962.0000,-0.0375,0.0318,9.8269,0.0009,-0.0048,0.0000,22.8400
36233962.0000,0.0225,0.0018,9.7969,0.0009,-0.0048,0.0000,22.9300
36256962.0000,0.0425,0.0018,9.8169,0.0009,-0.0048,0.0000,22.8800
36279962.0000,0.0125,-0.0282,9.8769,0.0009,0.0052,0.0000,22.8800
36302962.0000,-0.0275,-0.0582,9.8469,0.0009,0.0052,0.0000,22.9800
36325962.0000,-0.0375,-0.0182,9.8069,0.0009,-0.0048,0.0000,22.8800
36348962.0000,-0.0175,-0.0082,9.7969,-0.0091,0.0052,0.0000,22.8800
36371962.0000,-0.0575,-0.0082,9.8269,0.0009,0.0052,0.0000,22.8400
36394962.0000,-0.0075,-0.0582,9.7669,0.0009,0.0052,0.0000,22.9300
36417962.0000,-0.0075,-0.0382,9.8869,0.0009,0.0052,0.0000,22.9300
36440962.0000,0.0825,0.0218,9.8269,0.0009,-0.0048,0.0000,22.8800
36463962.0000,0.0025,-0.0682,9.8469,0.0009,0.0052,0.0000,22.9800
36486962.0000,-0.0075,0.0118,9.7969,0.0009,-0.0048,0.0000,22.8800
36509962.0000,-0.0075,-0.0082,9.7469,0.0009,-0.0048,0.0000,22.9800
36532962.0000,0.0325,0.0018,9.7869,0.0009,-0.0048,0.0000,22.9300
36555962.0000,-0.0075,0.0218,9.7369,0.0009,0.0052,0.0000,22.9300
36578962.0000,-0.0175,0.0018,9.6869,0.0009,-0.0048,0.0000,22.9300
36601962.0000,0.0325,-0.0182,9.7769,0.0009,-0.0048,0.0000,22.9300
36624962.0000,0.0125,0.0218,9.8869,0.0009,0.0052,0.0000,22.8800
36647962.0000,-0.0275,0.0718,9.8069,0.0009,-0.0048,0.0000,22.8800
36670962.0000,0.0425,0.0218,9.8369,0.0009,-0.0048,0.0000,22.7900
36693962.0000,-0.0075,0.0018,9.8469,0.0009,-0.0048,0.0000,22.8800
36716962.0000,-0.0175,0.0018,9.7869,0.0009,-0.0048,0.0000,23.0200
36739962.0000,-0.0375,-0.0482,9.7769,0.0009,-0.0048,0.0000,22.9300
36762962.0000,0.0125,0.0118,9.7569,0.0009,-0.0048,0.0000,22.9300
36785962.0000,-0.0175,-0.0282,9.7469,0.0009,0.0052,0.0000,22.9300
36808962.0000,0.0025,-0.0182,9.8269,0.0009,0.0052,0.0000,22.8800
36831962.0000,0.0125,0.0518,9.7469,0.0009,0.0052,0.0000,22.9800
36854962.0000,-0.0375,0.0218,9.8469,0.0009,0.0052,0.0000,22.9800
36877962.0000,-0.0175,0.0018,9.7869,0.0009,-0.0048,0.0000,22.8800
36900962.0000,0.0125,-0.0382,9.8569,0.0009,0.0052,0.0000,22.8400
36923962.0000,-0.0175,-0.0482,9.7769,-0.0091,0.0052,0.0000,22.9300
36946962.0000,-0.0275,0.0418,9.8269,0.0009,-0.0048,0.0000,22.9300
36969962.0000,0.0025,0.0118,9.8169,0.0009,-0.0048,0.0000,22.8400
36992962.0000,-0.0575,0.0218,9.8369,0.0009,0.0052,0.0000,22.8800
37015962.0000,-0.0375,-0.0182,9.7969,0.0009,-0.0048,0.0000,22.9800
37038962.0000,0.0025,-0.0182,9.8369,0.0009,-0.0048,0.0000,22.8800
37061962.0000,0.0325,0.0118,9.7769,0.0009,0.0052,0.0000,22.8800
37084962.0000,-0.0275,-0.0882,9.7769,0.0009,-0.0048,0.0000,22.8800
37107962.0000,-0.0075,0.0318,9.8269,0.0009,0.0052,0.0000,22.9300
37130962.0000,-0.0775,-0.0482,9.7769,0.0009,0.0052,0.0000,22.8400
37153962.0000,-0.0175,-0.0082,9.7669,0.0009,0.0052,0.0000,23.0200
37176962.0000,0.0125,0.0018,9.7469,0.0009,0.0052,0.0000,22.8800
37199962.0000,0.0025,0.0418,9.8369,0.0009,-0.0048,0.0000,22.9800
37222962.0000,0.0225,0.0318,9.7669,0.0009,0.0052,0.0000,22.9800
37245962.0000,-0.0175,-0.0182,9.7769,-0.0091,-0.0048,0.0000,22.8800
37268962.0000,-0.0675,0.0418,9.8569,0.0009,0.0052,0.0000,22.9300
37291962.0000,0.0225,-0.0582,9.7669,0.0009,-0.0048,0.0000,22.9300
37314962.0000,0.0225,-0.0082,9.7469,0.0009,0.0052,0.0000,22.9300
37337962.0000,0.0125,0.0118,9.8969,0.0009,0.0052,0.0000,22.8400
37360962.0000,-0.0375,0.0218,9.7569,0.0009,-0.0048,0.0000,22.9800
37383962.0000,0.0025,0.0118,9.8469,0.0009,-0.0048,0.0000,22.9800
37406962.0000,-0.0275,-0.0482,9.7769,0.0009,0.0052,0.0000,22.8800
37429962.0000,-0.0175,-0.0682,9.8569,0.0009,0.0052,0.0000,22.9800
37452962.0000,0.0225,0.0218,9.8069,0.0009,0.0052,0.0000,22.8400
37475962.0000,-0.0275,0.0218,9.8369,0.0009,0.0052,0.0000,22.9300
37498962.0000,0.0425,0.0018,9.8169,0.0009,0.0052,0.0000,22.9300
37521962.0000,0.0025,-0.0082,9.7969,0.0009,-0.0048,0.0000,22.9300
37544962.0000,0.0025,-0.0782,9.8569,0.0009,0.0052,0.0000,22.8800
37567962.0000,0.0125,-0.0182,9.8269,0.0009,0.0052,0.0000,22.9800
37590962.0000,-0.0475,-0.0082,9.7569,0.0009,-0.0048,0.0000,22.8800
37613962.0000,-0.0075,-0.0282,9.8369,0.0009,0.0052,0.0000,22.9800
37636962.0000,0.0225,0.0118,9.7869,0.0009,-0.0048,0.0000,23.0200
37659962.0000,-0.0475,-0.0182,9.8669,0.0009,0.0052,0.0000,22.8400
37682962.0000,-0.0475,-0.0882,9.7469,0.0009,-0.0048,0.0000,22.9300
37705962.0000,0.0425,0.0318,9.8269,0.0009,0.0052,0.0000,22.9300
37728962.0000,-0.0075,0.0018,9.8469,0.0009,-0.0048,0.0000,22.9800
37751962.0000,-0.0275,-0.0182,9.8669,0.0009,0.0052,0.0000,22.8800
37774962.0000,0.0225,0.0118,9.8569,0.0009,-0.0048,0.0000,22.8800
37797962.0000,0.0025,-0.0382,9.8069,0.0009,0.0052,0.0000,22.8800
37820962.0000,-0.0375,0.0118,9.7069,0.0009,0.0052,0.0000,22.9800
37843962.0000,-0.0475,-0.0382,9.8869,0.0009,0.0052,0.0000,23.0200
37866962.0000,0.0125,-0.0182,9.7969,0.0009,-0.0048,0.0000,23.0200
37889962.0000,-0.0075,0.0018,9.7369,0.0009,-0.0048,0.0000,22.9300
37912962.0000,0.0525,-0.0282,9.8669,0.0009,0.0052,0.0000,22.7900
37935962.0000,-0.0175,-0.0082,9.8569,0.0009,-0.0048,0.0000,22.9800
37958962.0000,0.0125,0.0318,9.7569,0.0009,0.0052,0.0000,22.7900
37981962.0000,-0.0275,0.0818,9.7669,0.0009,0.0052,0.0000,22.9800
38004962.0000,-0.0375,-0.0182,9.8169,0.0009,-0.0048,0.0000,22.9300
38027962.0000,0.0425,-0.0282,9.8169,0.0009,0.0052,0.0000,22.9300
38050962.0000,0.0225,-0.0182,9.7869,-0.0091,-0.0048,0.0000,22.9300
38073962.0000,0.0025,-0.0082,9.7869,0.0009,-0.0048,0.0000,22.8400
38096962.0000,0.0625,-0.0182,9.8569,-0.0091,-0.0048,0.0000,22.9800
38119962.0000,0.0025,-0.0082,9.8369,-0.0091,0.0052,0.0000,22.9800
38142962.0000,-0.0375,-0.0082,9.7969,0.0009,0.0052,0.0000,22.8800
38165962.0000,-0.0175,0.0218,9.8069,0.0009,0.0052,0.0000,22.8800
38188962.0000,-0.0075,0.0618,9.7669,0.0009,0.0052,0.0000,22.9300
38211962.0000,0.0225,-0.0382,9.7869,0.0009,0.0052,0.0000,22.9300
38234962.0000,-0.0275,-0.0182,9.8169,0.0009,0.0052,0.0000,22.9300
38257962.0000,-0.0175,0.0418,9.8369,0.0009,-0.0048,0.0000,23.0200
38280962.0000,0.0425,-0.0382,9.8569,0.0009,0.0052,0.0000,22.9800
38303962.0000,-0.0275,-0.0082,9.7469,0.0009,0.0052,0.0000,22.9800
38326962.0000,-0.0775,0.0018,9.7069,0.0009,0.0052,0.0000,22.8800
38349962.0000,0.0425,-0.0082,9.8369,-0.0091,0.0052,0.0000,22.8800
38372962.0000,0.0025,0.0118,9.8669,0.0009,-0.0048,0.0000,23.0200
38395962.0000,-0.0175,0.0018,9.7969,0.0009,0.0052,0.0000,22.9300
38418962.0000,0.0625,-0.0082,9.8669,0.0009,0.0052,0.0000,22.9300
38441962.0000,0.0025,0.0418,9.7969,0.0009,0.0052,0.0000,22.8400
38464962.0000,-0.0275,0.0318,9.7969,0.0009,0.0052,0.0000,22.9800
38487962.0000,-0.0175,-0.0482,9.7969,0.0009,0.0052,0.0000,22.8800
38510962.0000,-0.0075,-0.0482,9.7769,0.0009,0.0052,0.0000,22.9800
38533962.0000,0.0025,0.0418,9.7469,0.0009,0.0052,0.0000,22.8800
38556962.0000,0.0125,-0.0382,9.8169,0.0009,-0.0048,0.0000,22.9800
38579962.0000,0.0625,0.0218,9.8469,0.0009,0.0052,0.0000,22.9300
38602962.0000,0.0225,0.0418,9.8369,0.0009,0.0052,0.0000,22.9300
38625962.0000,0.0125,0.0218,9.7569,0.0009,-0.0048,0.0000,22.9300
38648962.0000,-0.0175,-0.0182,9.8169,0.0009,-0.0048,0.0000,22.9800
38671962.0000,0.0325,-0.0082,9.7569,0.0009,-0.0048,0.0000,22.9800
38694962.0000,-0.0275,0.0318,9.9169,0.0009,-0.0048,0.0000,22.9800
38717962.0000,0.0225,-0.0182,9.7769,0.0009,0.0052,0.0000,22.8800
38740962.0000,0.0125,0.0218,9.8569,0.0009,0.0052,0.0000,22.9300
38763962.0000,0.0425,0.0318,9.8369,0.0009,-0.0048,0.0000,22.9300
38786962.0000,-0.0675,0.0418,9.8869,0.0009,-0.0048,0.0000,22.9300
38809962.0000,-0.0375,-0.0082,9.8869,0.0009,0.0052,0.0000,22.9300
38832962.0000,-0.0175,-0.0582,9.8169,0.0009,-0.0048,0.0000,22.9800
38855962.0000,0.0125,-0.0182,9.6969,0.0009,-0.0048,0.0000,22.8800
38878962.0000,0.0525,0.0318,9.7569,-0.0091,-0.0048,0.0000,22.8800
38901962.0000,-0.0175,-0.0182,9.7669,0.0009,-0.0048,0.0000,22.8800
38924962.0000,-0.0275,0.0618,9.7569,0.0009,-0.0048,0.0000,22.9300
38947962.0000,0.0225,0.0018,9.7569,0.0009,-0.0048,0.0000,22.9300
38970962.0000,-0.0275,-0.0082,9.7569,0.0009,-0.0048,0.0000,23.0200
38993962.0000,0.0325,-0.0182,9.7469,0.0009,-0.0048,0.0000,22.8400
39016962.0000,0.0025,0.0418,9.7369,0.0009,-0.0048,0.0000,23.0700
39039962.0000,-0.0275,-0.0082,9.7369,0.0009,-0.0048,0.0000,22.9800
39062962.0000,-0.0375,-0.0082,9.8169,0.0009,-0.0048,0.0000,22.9800
39085962.0000,0.0525,-0.0182,9.8369,0.0009,-0.0048,0.0000,22.8800
39108962.0000,0.0325,-0.0082,9.8569,0.0009,0.0052,0.0000,22.9300
39131962.0000,0.0125,0.0018,9.8469,0.0009,0.0052,0.0000,22.9300
39154962.0000,0.0125,-0.0182,9.8769,0.0009,-0.0048,0.0000,22.9300
39177962.0000,-0.0275,0.0818,9.7969,0.0009,0.0052,0.0000,22.9300
39200962.0000,-0.0675,0.0318,9.8469,0.0009,-0.0048,0.0000,22.8800
39223962.0000,0.0125,0.0418,9.7469,0.0009,-0.0048,0.0000,22.9800
39246962.0000,-0.0175,-0.0082,9.7669,0.0009,0.0052,0.0000,22.9800
39269962.0000,-0.0175,0.0118,9.7169,-0.0091,-0.0048,0.0000,22.9800
39292962.0000,0.0225,0.0418,9.9469,0.0009,-0.0048,0.0000,22.9800
39315962.0000,0.0425,0.0118,9.7269,0.0009,-0.0048,0.0000,22.9300
39338962.0000,0.0025,-0.0082,9.8969,0.0009,-0.0048,0.0000,22.9300
39361962.0000,0.0325,0.0318,9.8469,0.0009,0.0052,0.0000,22.9300
39384962.0000,0.0225,-0.0182,9.7569,0.0009,0.0052,0.0000,22.8800
39407962.0000,-0.0375,0.0018,9.8269,-0.0091,-0.0048,0.0000,22.8800
39430962.0000,-0.0275,-0.1182,9.8169,0.0009,0.0052,0.0000,22.8800
39453962.0000,0.0325,0.0218,9.7969,0.0009,-0.0048,0.0000,22.9800
39476962.0000,0.0225,-0.0482,9.8869,0.0009,-0.0048,0.0000,22.9300
39499962.0000,0.0325,0.0418,9.8469,0.0009,0.0052,0.0000,23.0200
39522962.0000,0.0125,-0.0882,9.7669,0.0009,0.0052,0.0000,22.9300
39545962.0000,-0.0375,-0.0182,9.8769,0.0009,0.0052,0.0000,23.0200
39568962.0000,0.0025,0.0318,9.7469,0.0009,-0.0048,0.0000,22.8800
39591962.0000,0.0625,0.0118,9.8569,0.0009,-0.0048,0.0000,22.9800
39614962.0000,-0.0075,0.0418,9.7769,0.0009,0.0052,0.0000,22.9800
39637962.0000,-0.0275,0.0018,9.7769,0.0009,-0.0048,0.0000,22.8800
39660962.0000,-0.0175,-0.0282,9.8069,0.0009,0.0052,0.0000,23.0200
39683962.0000,0.0325,0.0018,9.8369,0.0009,-0.0048,0.0000,22.9300
39706962.0000,-0.0375,-0.0082,9.7869,0.0009,-0.0048,0.0000,22.9300
39729962.0000,-0.0075,-0.0582,9.8169,0.0009,-0.0048,0.0000,22.9300
39752962.0000,0.0225,0.0118,9.8469,0.0009,0.0052,0.0000,22.8800
39775962.0000,0.0025,-0.0682,9.7969,0.0009,0.0052,0.0000,22.9800
39798962.0000,-0.0275,0.0118,9.8169,0.0009,0.0052,0.0000,22.9800
39821962.0000,-0.0275,0.0518,9.7869,0.0009,-0.0048,0.0000,22.9800
39844962.0000,0.0625,0.0018,9.7869,0.0009,0.0052,0.0000,22.9300
39867962.0000,-0.0375,-0.0482,9.8569,0.0009,0.0052,0.0000,22.9300
39890962.0000,-0.0275,-0.0182,9.8269,0.0009,-0.0048,0.0000,22.9300
39913962.0000,-0.0475,-0.0582,9.8869,0.0009,-0.0048,0.0000,23.0200
39936962.0000,0.0125,0.0618,9.8169,0.0009,-0.0048,0.0000,23.0700
39959962.0000,-0.0475,-0.0582,9.8169,0.0009,-0.0048,0.0000,22.9800
39982962.0000,0.0425,-0.0182,9.8669,0.0009,-0.0048,0.0000,22.9800
40005962.0000,0.0025,-0.0482,9.8069,0.0009,0.0052,0.0000,22.9800
40028962.0000,-0.0075,-0.0082,9.8769,0.0009,-0.0048,0.0000,22.9800
40051962.0000,0.0425,-0.0182,9.7769,0.0009,-0.0048,0.0000,23.0200
40074962.0000,0.0125,-0.0182,9.7869,0.0009,-0.0048,0.0000,22.9300
40097962.0000,-0.0075,0.0218,9.8169,0.0009,-0.0048,0.0000,22.9300
40120962.0000,-0.0175,0.0218,9.7469,0.0009,-0.0048,0.0000,22.8800
40143962.0000,-0.0275,-0.0182,9.8469,0.0009,-0.0048,0.0000,22.9800
40166962.0000,0.0125,0.0518,9.7969,0.0009,0.0052,0.0000,22.9800
40189962.0000,0.0025,-0.0582,9.8169,0.0009,-0.0048,0.0000,22.9800
40212962.0000,-0.0275,-0.0582,9.8469,0.0009,-0.0048,0.0000,23.0200
40235962.0000,-0.0275,0.0218,9.7569,0.0009,-0.0048,0.0000,22.9300
40258962.0000,0.0025,0.0018,9.8369,0.0009,0.0052,0.0000,22.9300
40281962.0000,-0.0175,0.0218,9.7769,0.0009,0.0052,0.0000,22.8400
40304962.0000,-0.0075,-0.0582,9.8169,0.0009,0.0052,0.0000,22.9800
40327962.0000,0.0525,0.0218,9.8269,0.0009,-0.0048,0.0000,22.9800
40350962.0000,0.0125,0.0318,9.8369,0.0009,-0.0048,0.0000,22.8800
40373962.0000,-0.0075,0.0718,9.6769,0.0009,0.0052,0.0000,22.8800
40396962.0000,0.0225,-0.0382,9.7169,0.0009,0.0052,0.0000,23.0200
40419962.0000,0.0225,0.0118,9.7869,0.0009,0.0052,0.0000,22.9300
40442962.0000,0.0025,0.0218,9.7869,0.0009,-0.0048,0.0000,22.9300
40465962.0000,0.0025,-0.0582,9.7369,-0.0091,-0.0048,0.0000,22.9300
40488962.0000,0.0025,0.0418,9.8169,0.0009,0.0052,0.0000,22.9800
40511962.0000,0.0025,-0.0582,9.8269,0.0009,0.0052,0.0000,22.9800
40534962.0000,0.0325,0.0118,9.8269,0.0009,0.0052,0.0000,22.9800
40557962.0000,-0.0575,-0.0382,9.8269,-0.0091,-0.0048,0.0000,22.8800
40580962.0000,-0.0275,-0.0282,9.7769,0.0009,0.0052,0.0000,22.9300
40603962.0000,0.0225,-0.0282,9.8069,-0.0091,-0.0048,0.0000,22.9300
40626962.0000,0.0125,-0.0182,9.7369,0.0009,-0.0048,0.0000,22.9300
40649962.0000,0.0225,0.0418,9.7469,0.0009,-0.0048,0.0000,23.0200
40672962.0000,0.0225,-0.0382,9.7569,0.0009,0.0052,0.0000,22.9800
40695962.0000,0.0025,-0.0182,9.8369,0.0009,0.0052,0.0000,22.8800
40718962.0000,-0.0075,0.0218,9.8169,0.0009,0.0052,0.0000,22.8800
40741962.0000,-0.0375,0.0218,9.7769,-0.0091,0.0052,0.0000,22.9800
40764962.0000,-0.0375,-0.0382,9.8069,0.0009,-0.0048,0.0000,22.9800
40787962.0000,-0.0175,0.0018,9.8369,0.0009,0.0052,0.0000,22.9800
40810962.0000,0.0725,0.0318,9.8069,0.0009,0.0052,0.0000,22.9300
40833962.0000,-0.0675,-0.0182,9.8469,0.0009,-0.0048,0.0000,22.9300
40856962.0000,-0.0975,0.0118,9.8169,-0.0091,-0.0048,0.0000,22.9800
40879962.0000,-0.0075,-0.0082,9.7869,0.0009,0.0052,0.0000,22.8800
40902962.0000,0.0225,0.0218,9.8369,0.0009,0.0052,0.0000,22.9800
40925962.0000,0.0325,0.0418,9.7869,-0.0091,0.0052,0.0000,22.8800
40948962.0000,-0.0375,-0.0182,9.7669,0.0009,-0.0048,0.0000,22.8400
40971962.0000,-0.0175,0.0318,9.8569,0.0009,0.0052,0.0000,22.8400
40994962.0000,0.0025,0.0518,9.8269,0.0009,-0.0048,0.0000,23.0200
41017962.0000,-0.0075,-0.0282,9.8069,0.0009,-0.0048,0.0000,23.0200
41040962.0000,-0.0375,0.0318,9.8069,0.0009,-0.0048,0.0000,22.8800
41063962.0000,-0.0275,0.0218,9.7869,0.0009,0.0052,0.0000,22.9800
41086962.0000,-0.0075,0.0018,9.7969,0.0009,-0.0048,0.0000,22.9800
41109962.0000,-0.0475,0.0018,9.8769,0.0009,0.0052,0.0000,22.9800
41132962.0000,-0.0175,-0.0182,9.8569,0.0009,-0.0048,0.0000,22.9300
41155962.0000,0.0225,-0.0182,9.7969,0.0009,-0.0048,0.0000,23.0200
41178962.0000,0.0125,0.0318,9.8069,0.0009,0.0052,0.0000,22.9300
41201962.0000,0.0025,0.0518,9.8669,0.0009,-0.0048,0.0000,22.9300
41224962.0000,0.0025,0.0418,9.7369,0.0009,-0.0048,0.0000,22.9800
41247962.0000,-0.0475,-0.0382,9.8969,0.0009,0.0052,0.0000,22.9800
41270962.0000,0.0125,0.0218,9.7869,0.0009,-0.0048,0.0000,22.8800
41293962.0000,0.0725,-0.0082,9.8169,0.0009,0.0052,0.0000,22.9800
41316962.0000,-0.0375,0.0318,9.8269,0.0009,-0.0048,0.0000,22.8400
41339962.0000,-0.0075,-0.0182,9.8869,0.0009,-0.0048,0.0000,22.9300
41362962.0000,0.0025,0.0718,9.8169,-0.0091,-0.0048,0.0000,22.8400
41385962.0000,0.0125,0.0618,9.8869,0.0009,0.0052,0.0000,22.9300
41408962.0000,0.0125,-0.0382,9.8569,0.0009,0.0052,0.0000,22.9800
41431962.0000,0.0125,0.0218,9.7269,0.0009,-0.0048,0.0000,22.9800
41454962.0000,-0.0075,-0.0082,9.8769,0.0009,-0.0048,0.0000,22.8800
41477962.0000,0.0225,0.0318,9.7869,0.0009,0.0052,0.0000,22.9800
41500962.0000,-0.0375,-0.0382,9.8369,-0.0091,0.0052,0.0000,22.9800
41523962.0000,-0.0275,-0.0382,9.8469,0.0009,-0.0048,0.0000,22.8800
41546962.0000,-0.0175,0.0418,9.8069,0.0009,-0.0048,0.0000,22.9300
41569962.0000,0.0125,-0.0082,9.8669,0.0009,-0.0048,0.0000,22.9300
41592962.0000,-0.0075,0.0218,9.8069,0.0009,0.0052,0.0000,22.9800
41615962.0000,0.0125,0.0118,9.7869,0.0009,-0.0048,0.0000,22.8800
41638962.0000,-0.0275,-0.0482,9.8669,-0.0091,0.0052,0.0000,22.9800
41661962.0000,0.0325,-0.0082,9.7869,0.0009,-0.0048,0.0000,22.9800
41684962.0000,-0.0075,-0.0182,9.8169,0.0009,-0.0048,0.0000,22.9300
41707962.0000,0.0025,-0.0182,9.8169,0.0009,-0.0048,0.0000,22.9300
41730962.0000,0.0425,-0.0182,9.7769,0.0009,0.0052,0.0000,22.9300
41753962.0000,-0.0475,0.0418,9.8269,0.0009,-0.0048,0.0000,22.9300
41776962.0000,-0.0175,0.0118,9.7969,0.0009,-0.0048,0.0000,22.9800
41799962.0000,0.0525,0.0018,9.7369,0.0009,0.0052,0.0000,22.9800
41822962.0000,-0.0175,-0.0382,9.7869,0.0009,0.0052,0.0000,22.9800
41845962.0000,0.0025,0.0118,9.7769,0.0009,-0.0048,0.0000,22.8800
41868962.0000,0.0525,0.0218,9.8569,0.0009,0.0052,0.0000,22.9300
41891962.0000,-0.0275,-0.0182,9.8669,0.0009,0.0052,0.0000,22.9300
41914962.0000,0.0025,0.0018,9.7969,0.0009,-0.0048,0.0000,23.0200
41937962.0000,-0.0175,-0.0082,9.7469,0.0009,0.0052,0.0000,22.9300
41960962.0000,0.0225,0.0418,9.7569,0.0009,0.0052,0.0000,22.9800
41983962.0000,-0.0175,0.0018,9.7169,0.0009,-0.0048,0.0000,22.8800
42006962.0000,0.0325,-0.0082,9.7569,0.0009,0.0052,0.0000,22.9800
42029962.0000,0.0225,0.0018,9.8169,-0.0091,-0.0048,0.0000,22.8800
42052962.0000,0.0125,-0.0182,9.8669,0.0009,-0.0048,0.0000,22.9300
42075962.0000,0.0525,-0.0182,9.8169,0.0009,0.0052,0.0000,23.0200
42098962.0000,-0.0275,-0.0382,9.8569,0.0009,0.0052,0.0000,22.9300
42121962.0000,-0.0175,-0.0282,9.7569,-0.0091,0.0052,0.0000,23.0200
42144962.0000,0.0125,-0.0082,9.7769,0.0009,0.0052,0.0000,22.8800
42167962.0000,-0.0175,-0.0382,9.7069,0.0009,-0.0048,0.0000,22.9800
42190962.0000,0.0225,-0.0082,9.8469,0.0009,0.0052,0.0000,22.9800
42213962.0000,-0.0475,-0.0782,9.8169,0.0009,-0.0048,0.0000,22.9800
42236962.0000,0.0225,-0.0082,9.8169,0.0009,-0.0048,0.0000,22.9800
42259962.0000,-0.0175,-0.0082,9.7469,0.0009,-0.0048,0.0000,22.9800
42282962.0000,0.0125,0.0018,9.7669,0.0009,0.0052,0.0000,22.9300
42305962.0000,0.0225,0.0118,9.8269,0.0009,-0.0048,0.0000,23.0200
42328962.0000,0.0025,-0.0282,9.8269,0.0009,0.0052,0.0000,22.8800
42351962.0000,0.0625,0.0218,9.7969,0.0009,-0.0048,0.0000,22.8800
42374962.0000,0.0125,0.0218,9.8169,-0.0091,0.0052,0.0000,22.9800
42397962.0000,0.0525,-0.0682,9.8669,0.0009,0.0052,0.0000,22.8800
42420962.0000,0.0025,-0.0082,9.7369,0.0009,-0.0048,0.0000,22.8400
42443962.0000,0.0225,0.0318,9.8269,0.0009,0.0052,0.0000,22.9300
42466962.0000,0.0225,-0.0482,9.7269,0.0009,0.0052,0.0000,23.0200
42489962.0000,-0.0475,-0.0082,9.7969,0.0009,-0.0048,0.0000,23.0200
42512962.0000,0.0425,-0.0482,9.7969,0.0009,0.0052,0.0000,22.8800
42535962.0000,-0.0575,-0.0482,9.7769,0.0009,0.0052,0.0000,22.8800
42558962.0000,-0.0475,-0.0182,9.8469,0.0009,-0.0048,0.0000,22.8800
42581962.0000,0.0325,-0.0182,9.8569,0.0009,-0.0048,0.0000,22.8800
42604962.0000,0.0725,-0.0082,9.8869,0.0009,0.0052,0.0000,22.9300
42627962.0000,-0.0375,-0.0582,9.8169,0.0009,-0.0048,0.0000,22.9300
42650962.0000,0.0725,-0.0182,9.7769,0.0009,0.0052,0.0000,22.9300
42673962.0000,0.0825,0.0718,9.7969,0.0009,-0.0048,0.0000,23.0200
42696962.0000,0.0325,0.0218,9.8169,0.0009,0.0052,0.0000,22.9800
42719962.0000,-0.0375,0.0318,9.8069,0.0009,0.0052,0.0000,22.8800
42742962.0000,-0.0075,-0.0282,9.8769,0.0009,-0.0048,0.0000,22.9800
42765962.0000,0.0025,0.0418,9.7969,0.0009,0.0052,0.0000,22.9800
42788962.0000,0.0425,0.0018,9.7069,0.0009,0.0052,0.0000,22.9300
42811962.0000,0.0125,0.0018,9.7769,0.0009,0.0052,0.0000,22.9300
42834962.0000,0.0125,-0.0282,9.8269,0.0009,0.0052,0.0000,23.0200
42857962.0000,0.0525,-0.0182,9.7869,-0.0091,0.0052,0.0000,22.9300
42880962.0000,-0.0175,-0.0282,9.7369,0.0009,-0.0048,0.0000,22.9800
42903962.0000,0.0125,-0.0082,9.7969,0.0009,-0.0048,0.0000,22.9800
42926962.0000,-0.0275,-0.0182,9.8369,0.0009,-0.0048,0.0000,22.9800
42949962.0000,0.0125,-0.0082,9.7569,0.0009,-0.0048,0.0000,22.9800
42972962.0000,-0.0175,-0.0282,9.8369,0.0009,0.0052,0.0000,22.8800
42995962.0000,-0.0375,-0.0182,9.8369,0.0009,-0.0048,0.0000,22.9800
43018962.0000,0.0325,0.0518,9.8369,0.0009,-0.0048,0.0000,22.9300
43041962.0000,-0.0375,0.0218,9.8069,0.0009,0.0052,0.0000,22.9300
43064962.0000,-0.0175,0.0318,9.8269,-0.0091,0.0052,0.0000,22.8800
43087962.0000,-0.0075,0.0418,9.7969,0.0009,-0.0048,0.0000,22.9800
43110962.0000,-0.0375,-0.0482,9.8669,0.0009,0.0052,0.0000,22.8800
43133962.0000,0.0025,0.0118,9.8269,0.0009,-0.0048,0.0000,22.8800
43156962.0000,0.0425,-0.0382,9.7369,0.0009,-0.0048,0.0000,22.9300
43179962.0000,-0.0275,0.0218,9.7769,0.0009,-0.0048,0.0000,22.9300
43202962.0000,-0.0175,-0.0482,9.8469,0.0009,-0.0048,0.0000,22.9300
43225962.0000,-0.0275,-0.0082,9.8369,0.0009,-0.0048,0.0000,23.0200
43248962.0000,-0.0175,-0.0482,9.7869,0.0009,-0.0048,0.0000,22.9800
43271962.0000,0.0225,0.0418,9.8969,0.0009,-0.0048,0.0000,22.8800
43294962.0000,-0.0175,0.0318,9.8969,0.0009,-0.0048,0.0000,22.8800
43317962.0000,-0.0275,-0.0282,9.8069,-0.0091,0.0052,0.0000,22.8800
43340962.0000,-0.0075,-0.0482,9.8469,0.0009,-0.0048,0.0000,22.9300
43363962.0000,0.0325,0.0318,9.8269,0.0009,-0.0048,0.0000,22.9300
43386962.0000,-0.0175,-0.0382,9.9569,0.0009,-0.0048,0.0000,22.9300
43409962.0000,0.0225,0.0518,9.8569,0.0009,0.0052,0.0000,22.9300
43432962.0000,-0.0575,0.0018,9.8269,0.0009,-0.0048,0.0000,22.8800
43455962.0000,-0.0275,0.0518,9.7969,0.0009,-0.0048,0.0000,22.9800
43478962.0000,-0.0175,-0.0382,9.8069,0.0009,-0.0048,0.0000,22.9800
43501962.0000,0.0225,0.0518,9.8269,0.0009,0.0052,0.0000,22.9800
43524962.0000,0.0025,-0.0682,9.8369,0.0009,-0.0048,0.0000,22.9300
43547962.0000,-0.0275,0.0218,9.7669,-0.0091,-0.0048,0.0000,22.9300
43570962.0000,0.0025,-0.0282,9.8269,0.0009,-0.0048,0.0000,23.0200
43593962.0000,-0.0475,0.0218,9.8269,0.0009,0.0052,0.0000,23.0200
43616962.0000,0.0325,0.0618,9.7669,0.0009,-0.0048,0.0000,22.9800
43639962.0000,0.0225,-0.0382,9.8469,0.0009,-0.0048,0.0000,22.9800
43662962.0000,0.0025,0.0118,9.7869,0.0009,-0.0048,0.0000,22.9800
43685962.0000,-0.0375,-0.0282,9.7669,0.0009,0.0052,0.0000,22.8800
43708962.0000,0.0125,0.0118,9.7869,0.0009,0.0052,0.0000,22.8800
43731962.0000,-0.0175,-0.0082,9.7969,0.0009,0.0052,0.0000,22.8800
43754962.0000,0.0225,0.0118,9.7169,0.0009,-0.0048,0.0000,23.0200
43777962.0000,-0.0175,0.0218,9.7869,0.0009,-0.0048,0.0000,22.9300
43800962.0000,-0.0675,-0.0082,9.7869,0.0009,0.0052,0.0000,22.8800
43823962.0000,0.0325,-0.0282,9.8269,0.0009,-0.0048,0.0000,22.9800
43846962.0000,-0.0175,0.0518,9.7769,0.0009,-0.0048,0.0000,22.9800
43869962.0000,-0.0175,-0.0182,9.7569,0.0009,-0.0048,0.0000,22.9800
43892962.0000,-0.0075,-0.0282,9.7969,0.0009,-0.0048,0.0000,23.0200
43915962.0000,-0.0375,0.0018,9.8069,0.0009,-0.0048,0.0000,22.9300
43938962.0000,0.0025,0.0418,9.7269,0.0009,0.0052,0.0000,22.9300
43961962.0000,-0.0475,0.0118,9.7969,-0.0091,-0.0048,0.0000,22.9300
43984962.0000,0.0325,-0.0082,9.8069,0.0009,0.0052,0.0000,22.8800
44007962.0000,-0.0075,0.0118,9.8169,0.0009,0.0052,0.0000,22.8800
44030962.0000,-0.0575,-0.0182,9.7869,0.0009,-0.0048,0.0000,22.8800
