Time (us),AccelX (m/s^2),AccelY (m/s^2),AccelZ (m/s^2),GyroX (rad/s),GyroY (rad/s),GyroZ (rad/s),Temp (C)
1871962.0,0.21,-0.06,9.16,-0.05,0.03,-0.01,22.74
1894962.0,0.25,0.02,9.1,-0.04,0.03,-0.01,22.69
1917962.0,0.31,-0.04,9.2,-0.04,0.03,-0.01,22.6
1940962.0,0.29,-0.03,9.2,-0.04,0.02,-0.01,22.69
1963962.0,0.29,-0.03,9.11,-0.04,0.02,-0.01,22.69
1986962.0,0.32,-0.04,9.14,-0.04,0.03,-0.01,22.65
2009962.0,0.28,-0.02,9.22,-0.04,0.02,-0.01,22.65
2032962.0,0.25,-0.04,9.2,-0.04,0.02,-0.01,22.74
2055962.0,0.24,-0.02,9.13,-0.04,0.03,-0.01,22.65
2078962.0,0.22,-0.03,9.23,-0.04,0.02,-0.01,22.6
2101962.0,0.32,-0.03,9.23,-0.05,0.02,-0.01,22.6
2124962.0,0.31,0.0,9.22,-0.04,0.02,-0.01,22.69
2147962.0,0.3,-0.03,9.2,-0.04,0.02,-0.01,22.69
2170962.0,0.34,-0.12,9.14,-0.04,0.03,-0.01,22.74
2193962.0,0.23,-0.04,9.17,-0.04,0.02,-0.01,22.65
2216962.0,0.24,0.06,9.26,-0.04,0.02,-0.01,22.65
2239962.0,0.24,-0.11,9.11,-0.04,0.02,-0.01,22.65
2262962.0,0.27,-0.05,9.17,-0.04,0.03,-0.01,22.79
2285962.0,0.24,-0.1,9.09,-0.04,0.02,-0.01,22.69
2308962.0,0.28,-0.01,9.14,-0.05,0.02,-0.01,22.69
2331962.0,0.3,-0.03,9.12,-0.05,0.02,-0.01,22.6
2354962.0,0.29,0.02,9.33,-0.05,0.02,-0.01,22.65
2377962.0,0.32,-0.04,9.22,-0.04,0.03,-0.01,22.65
2400962.0,0.24,0.0,9.24,-0.04,0.03,-0.01,22.65
2423962.0,0.27,-0.05,9.2,-0.04,0.02,-0.01,22.65
2446962.0,0.21,-0.06,9.26,-0.04,0.02,-0.01,22.69
2469962.0,0.28,-0.03,9.23,-0.04,0.02,-0.01,22.69
2492962.0,0.25,-0.07,9.19,-0.04,0.02,-0.01,22.6
2515962.0,0.2,-0.0,9.2,-0.04,0.02,-0.01,22.69
2538962.0,0.3,-0.04,9.24,-0.04,0.02,-0.01,22.69
2561962.0,0.23,-0.02,9.12,-0.04,0.02,-0.01,22.74
2584962.0,0.27,-0.03,9.16,-0.04,0.03,-0.01,22.74
2607962.0,0.33,-0.02,9.19,-0.04,0.02,-0.01,22.65
2630962.0,0.26,-0.11,9.26,-0.04,0.02,-0.01,22.69
2653962.0,0.22,0.02,9.19,-0.04,0.02,-0.01,22.69
2676962.0,0.29,-0.04,9.21,-0.04,0.03,-0.01,22.6
2699962.0,0.28,-0.13,9.15,-0.04,0.03,-0.01,22.69
2722962.0,0.34,-0.03,9.14,-0.04,0.02,-0.01,22.65
2745962.0,0.3,0.0,9.22,-0.04,0.03,-0.01,22.74
2768962.0,0.24,-0.09,9.12,-0.04,0.02,-0.01,22.65
2791962.0,0.26,-0.04,9.21,-0.04,0.03,-0.01,22.65
2814962.0,0.31,-0.0,9.21,-0.04,0.02,-0.01,22.69
2837962.0,0.27,-0.08,9.13,-0.04,0.03,-0.01,22.6
2860962.0,0.27,-0.03,9.12,-0.04,0.02,-0.01,22.79
2883962.0,0.26,-0.05,9.09,-0.04,0.02,-0.01,22.69
2906962.0,0.27,-0.06,9.15,-0.04,0.03,-0.01,22.65
2929962.0,0.21,-0.06,9.13,-0.04,0.03,-0.01,22.65
2952962.0,0.24,-0.04,9.25,-0.04,0.02,-0.01,22.65
2975962.0,0.34,-0.03,9.04,-0.04,0.03,-0.01,22.65
2998962.0,0.24,-0.08,9.2,-0.04,0.02,-0.01,22.69
3021962.0,0.26,-0.14,9.21,-0.04,0.02,-0.01,22.69
3044962.0,0.3,-0.0,9.21,-0.04,0.03,-0.01,22.69
3067962.0,0.26,-0.07,9.19,-0.04,0.02,-0.01,22.69
3090962.0,0.25,-0.12,9.11,-0.04,0.02,-0.01,22.65
3113962.0,0.25,-0.05,9.18,-0.05,0.03,-0.01,22.74
3136962.0,0.22,-0.02,9.17,-0.05,0.02,-0.01,22.65
3159962.0,0.29,-0.03,9.22,-0.04,0.02,-0.01,22.65
3182962.0,0.25,-0.08,9.19,-0.04,0.02,-0.01,22.69
3205962.0,0.23,-0.03,9.3,-0.04,0.03,-0.01,22.69
3228962.0,0.31,-0.01,9.15,-0.04,0.02,-0.01,22.69
3251962.0,0.29,-0.04,9.17,-0.04,0.02,-0.01,22.69
3274962.0,0.33,-0.05,9.22,-0.04,0.02,-0.01,22.6
3297962.0,0.16,0.01,9.31,-0.04,0.03,-0.01,22.74
3320962.0,0.28,-0.1,9.21,-0.04,0.02,-0.01,22.65
3343962.0,0.23,-0.07,9.18,-0.04,0.02,-0.01,22.65
3366962.0,0.3,0.01,9.17,-0.04,0.02,-0.01,22.6
3389962.0,0.25,-0.11,9.17,-0.04,0.03,-0.01,22.6
3412962.0,0.24,-0.03,9.21,-0.04,0.03,-0.01,22.69
3435962.0,0.24,-0.04,9.15,-0.04,0.03,-0.01,22.6
3458962.0,0.22,-0.12,9.26,-0.05,0.03,-0.01,22.65
3481962.0,0.25,-0.06,9.27,-0.04,0.02,-0.01,22.74
3504962.0,0.32,-0.02,9.28,-0.04,0.02,-0.01,22.65
3527962.0,0.21,-0.11,9.17,-0.04,0.03,-0.01,22.74
3550962.0,0.27,-0.04,9.17,-0.04,0.03,-0.01,22.79
3573962.0,0.26,-0.12,9.16,-0.04,0.03,-0.01,22.6
3596962.0,0.22,-0.04,9.18,-0.04,0.02,-0.01,22.69
3619962.0,0.27,-0.07,9.17,-0.04,0.02,-0.01,22.69
3642962.0,0.25,-0.02,9.22,-0.04,0.03,-0.01,22.65
3665962.0,0.26,-0.09,9.22,-0.04,0.03,-0.01,22.65
3688962.0,0.24,-0.09,9.22,-0.04,0.03,-0.01,22.65
3711962.0,0.25,-0.07,9.22,-0.04,0.03,-0.01,22.65
3734962.0,0.29,-0.12,9.17,-0.04,0.02,-0.01,22.69
3757962.0,0.24,-0.04,9.27,-0.04,0.02,-0.01,22.6
3780962.0,0.23,-0.04,9.19,-0.04,0.03,-0.01,22.69
3803962.0,0.24,0.02,9.06,-0.04,0.03,-0.01,22.69
3826962.0,0.24,-0.08,9.15,-0.04,0.02,-0.01,22.65
3849962.0,0.27,-0.08,9.21,-0.04,0.03,-0.01,22.65
3872962.0,0.29,-0.01,9.17,-0.04,0.03,-0.01,22.65
3895962.0,0.27,-0.09,9.15,-0.04,0.02,-0.01,22.74
3918962.0,0.3,-0.07,9.23,-0.04,0.03,-0.01,22.6
3941962.0,0.23,-0.02,9.23,-0.04,0.02,-0.01,22.69
3964962.0,0.26,-0.08,9.18,-0.04,0.03,-0.01,22.69
3987962.0,0.25,-0.02,9.18,-0.04,0.02,-0.01,22.69
4010962.0,0.28,0.01,9.16,-0.04,0.02,-0.01,22.6
4033962.0,0.32,0.0,9.12,-0.04,0.02,-0.01,22.55
4056962.0,0.27,-0.02,9.28,-0.04,0.02,-0.01,22.65
4079962.0,0.25,-0.02,9.21,-0.04,0.02,-0.01,22.65
4102962.0,0.27,-0.0,9.17,-0.04,0.02,-0.01,22.69
4125962.0,0.24,0.01,9.16,-0.04,0.02,-0.01,22.69
4148962.0,0.31,-0.13,9.17,-0.04,0.02,-0.01,22.69
4171962.0,0.26,-0.05,9.24,-0.04,0.02,-0.01,22.69
4194962.0,0.23,-0.08,9.3,-0.04,0.03,-0.01,22.74
4217962.0,0.23,0.0,9.24,-0.04,0.02,-0.01,22.74
4240962.0,0.24,-0.06,9.26,-0.04,0.02,-0.01,22.65
4263962.0,0.3,-0.07,9.15,-0.04,0.03,-0.01,22.74
4286962.0,0.21,-0.08,9.1,-0.04,0.02,-0.01,22.69
4309962.0,0.23,-0.05,9.12,-0.04,0.03,-0.01,22.69
4332962.0,0.23,0.01,9.19,-0.04,0.02,-0.01,22.69
4355962.0,0.26,-0.03,9.18,-0.04,0.03,-0.01,22.6
4378962.0,0.25,-0.07,9.23,-0.04,0.02,-0.01,22.65
4401962.0,0.23,-0.09,9.18,-0.04,0.03,-0.01,22.65
4424962.0,0.3,-0.01,9.04,-0.04,0.03,-0.01,22.65
4447962.0,0.3,-0.02,9.21,-0.04,0.03,-0.01,22.65
4470962.0,0.21,-0.05,9.14,-0.04,0.03,-0.01,22.79
4493962.0,0.26,-0.05,9.18,-0.04,0.02,-0.01,22.6
4516962.0,0.29,-0.03,9.17,-0.05,0.03,-0.01,22.69
4539962.0,0.35,-0.01,9.21,-0.04,0.02,-0.01,22.69
4562962.0,0.34,-0.04,9.2,-0.04,0.02,-0.01,22.65
4585962.0,0.23,-0.05,9.17,-0.04,0.02,-0.01,22.74
4608962.0,0.24,0.0,9.09,-0.04,0.02,-0.01,22.74
4631962.0,0.25,-0.1,9.21,-0.04,0.02,-0.01,22.74
4654962.0,0.23,-0.06,9.13,-0.04,0.02,-0.01,22.6
4677962.0,0.24,-0.06,9.17,-0.04,0.03,-0.01,22.69
4700962.0,0.21,-0.03,9.28,-0.04,0.03,-0.01,22.69
4723962.0,0.28,-0.08,9.16,-0.04,0.02,-0.01,22.69
4746962.0,0.24,-0.06,9.15,-0.04,0.02,-0.01,22.69
4769962.0,0.3,-0.05,9.26,-0.04,0.03,-0.01,22.65
4792962.0,0.22,-0.07,9.16,-0.04,0.02,-0.01,22.65
4815962.0,0.28,-0.06,9.15,-0.04,0.03,-0.01,22.74
4838962.0,0.28,-0.05,9.25,-0.04,0.03,-0.01,22.69
4861962.0,0.28,-0.07,9.18,-0.04,0.03,-0.01,22.69
4884962.0,0.28,-0.07,9.14,-0.04,0.03,-0.01,22.69
4907962.0,0.23,-0.06,9.12,-0.04,0.03,-0.01,22.69
4930962.0,0.27,-0.07,9.21,-0.05,0.02,-0.01,22.65
4953962.0,0.29,-0.01,9.16,-0.04,0.02,-0.01,22.65
4976962.0,0.23,-0.03,9.22,-0.04,0.03,-0.01,22.55
4999962.0,0.29,-0.06,9.19,-0.04,0.03,-0.01,22.74
5022962.0,0.27,-0.03,9.24,-0.04,0.02,-0.01,22.69
5045962.0,0.27,-0.05,9.21,-0.04,0.02,-0.01,22.6
5068962.0,0.27,-0.06,9.22,-0.05,0.02,-0.01,22.69
5091962.0,0.29,-0.01,9.17,-0.04,0.03,-0.01,22.69
5114962.0,0.26,-0.05,9.17,-0.04,0.02,-0.01,22.74
5137962.0,0.27,-0.08,9.18,-0.04,0.02,-0.01,22.74
5160962.0,0.2,-0.01,9.15,-0.04,0.02,-0.01,22.74
5183962.0,0.27,0.01,9.09,-0.04,0.03,-0.01,22.65
5206962.0,0.28,-0.06,9.18,-0.04,0.03,-0.01,22.69
5229962.0,0.26,-0.06,9.17,-0.04,0.02,-0.01,22.69
5252962.0,0.31,0.0,9.18,-0.04,0.02,-0.01,22.69
5275962.0,0.22,-0.06,9.18,-0.04,0.02,-0.01,22.69
5298962.0,0.3,-0.13,9.19,-0.04,0.03,-0.01,22.74
5321962.0,0.28,-0.02,9.24,-0.04,0.03,-0.01,22.74
5344962.0,0.33,-0.01,9.25,-0.05,0.02,-0.01,22.65
5367962.0,0.27,-0.04,9.16,-0.05,0.02,-0.01,22.74
5390962.0,0.26,-0.03,9.18,-0.04,0.03,-0.01,22.69
5413962.0,0.31,-0.06,9.17,-0.04,0.03,-0.01,22.69
5436962.0,0.21,-0.05,9.28,-0.04,0.02,-0.01,22.69
5459962.0,0.22,-0.07,9.16,-0.04,0.03,-0.01,22.69
5482962.0,0.25,-0.04,9.26,-0.04,0.02,-0.01,22.79
5505962.0,0.28,0.0,9.17,-0.04,0.02,-0.01,22.65
5528962.0,0.28,0.01,9.18,-0.04,0.02,-0.01,22.74
5551962.0,0.28,-0.08,9.1,-0.04,0.02,-0.01,22.74
5574962.0,0.28,-0.02,9.17,-0.04,0.03,-0.01,22.69
5597962.0,0.25,-0.01,9.22,-0.04,0.03,-0.01,22.79
5620962.0,0.23,-0.03,9.21,-0.04,0.02,-0.01,22.6
5643962.0,0.3,-0.01,9.24,-0.04,0.02,-0.01,22.69
5666962.0,0.28,-0.06,9.13,-0.04,0.03,-0.01,22.65
5689962.0,0.24,-0.02,9.2,-0.04,0.03,-0.01,22.65
5712962.0,0.24,-0.05,9.22,-0.04,0.02,-0.01,22.65
5735962.0,0.26,-0.06,9.22,-0.04,0.02,-0.01,22.74
5758962.0,0.24,-0.03,9.27,-0.05,0.03,-0.01,22.69
5781962.0,0.28,0.02,9.2,-0.04,0.03,-0.01,22.69
5804962.0,0.31,-0.05,9.19,-0.04,0.02,-0.01,22.69
5827962.0,0.27,-0.04,9.22,-0.04,0.03,-0.01,22.65
5850962.0,0.26,-0.01,9.25,-0.04,0.02,-0.01,22.65
5873962.0,0.3,-0.01,9.15,-0.04,0.03,-0.01,22.74
5896962.0,0.25,-0.01,9.22,-0.04,0.03,-0.01,22.65
5919962.0,0.32,-0.03,9.17,-0.04,0.02,-0.01,22.69
5942962.0,0.24,-0.01,9.21,-0.04,0.02,-0.01,22.69
5965962.0,0.28,-0.05,9.17,-0.04,0.03,-0.01,22.69
5988962.0,0.25,-0.01,9.17,-0.04,0.02,-0.01,22.6
6011962.0,0.24,-0.1,9.13,-0.04,0.03,-0.01,22.74
6034962.0,0.31,-0.06,9.16,-0.04,0.02,-0.01,22.74
6057962.0,0.26,-0.03,9.2,-0.04,0.02,-0.01,22.65
6080962.0,0.3,-0.01,9.22,-0.05,0.03,-0.01,22.74
6103962.0,0.28,0.0,9.19,-0.05,0.03,-0.01,22.6
6126962.0,0.29,-0.01,9.08,-0.05,0.02,-0.01,22.69
6149962.0,0.22,-0.07,9.24,-0.04,0.02,-0.01,22.69
6172962.0,0.28,-0.06,9.25,-0.04,0.03,-0.01,22.69
6195962.0,0.29,-0.02,9.26,-0.04,0.03,-0.01,22.69
6218962.0,0.28,0.0,9.19,-0.04,0.03,-0.01,22.69
6241962.0,0.33,-0.09,9.22,-0.04,0.03,-0.01,22.65
6264962.0,0.24,0.02,9.32,-0.04,0.03,-0.01,22.65
6287962.0,0.27,-0.08,9.14,-0.04,0.02,-0.01,22.69
6310962.0,0.28,0.04,9.19,-0.04,0.02,-0.01,22.69
6333962.0,0.23,-0.07,9.23,-0.04,0.03,-0.01,22.69
6356962.0,0.26,-0.01,9.23,-0.04,0.03,-0.01,22.69
6379962.0,0.28,-0.04,9.19,-0.04,0.03,-0.01,22.65
6402962.0,0.28,-0.01,9.23,-0.04,0.02,-0.01,22.74
6425962.0,0.25,-0.08,9.18,-0.04,0.02,-0.01,22.84
6448962.0,0.31,-0.01,9.25,-0.04,0.03,-0.01,22.74
6471962.0,0.24,-0.02,9.16,-0.04,0.02,-0.01,22.69
6494962.0,0.29,-0.03,9.14,-0.04,0.03,-0.01,22.79
6517962.0,0.3,-0.09,9.15,-0.05,0.03,-0.01,22.69
6540962.0,0.27,0.01,9.16,-0.04,0.03,-0.01,22.79
6563962.0,0.28,-0.04,9.25,-0.04,0.03,-0.01,22.74
6586962.0,0.31,-0.09,9.23,-0.04,0.03,-0.01,22.65
6609962.0,0.22,-0.05,9.17,-0.04,0.03,-0.01,22.74
6632962.0,0.29,-0.05,9.23,-0.04,0.02,-0.01,22.65
6655962.0,0.22,-0.09,9.16,-0.04,0.03,-0.01,22.79
6678962.0,0.31,-0.06,9.24,-0.04,0.02,-0.01,22.69
6701962.0,0.28,-0.06,9.19,-0.04,0.02,-0.01,22.69
6724962.0,0.25,-0.06,9.17,-0.04,0.02,-0.01,22.69
6747962.0,0.28,-0.04,9.16,-0.05,0.03,-0.01,22.74
6770962.0,0.31,-0.03,9.18,-0.04,0.02,-0.01,22.65
6793962.0,0.28,-0.04,9.26,-0.05,0.03,-0.01,22.74
6816962.0,0.28,-0.05,9.14,-0.04,0.03,-0.01,22.74
6839962.0,0.25,-0.02,9.18,-0.04,0.02,-0.01,22.6
6862962.0,0.27,-0.08,9.21,-0.04,0.03,-0.01,22.79
6885962.0,0.2,-0.01,9.21,-0.04,0.02,-0.01,22.69
6908962.0,0.28,-0.01,9.16,-0.04,0.03,-0.01,22.69
6931962.0,0.33,-0.08,9.19,-0.05,0.03,-0.01,22.79
6954962.0,0.29,-0.03,9.2,-0.04,0.02,-0.01,22.69
6977962.0,0.33,-0.08,9.21,-0.04,0.03,-0.01,22.74
7000962.0,0.29,0.03,9.26,-0.04,0.03,-0.01,22.74
7023962.0,0.23,0.01,9.28,-0.04,0.02,-0.01,22.69
7046962.0,0.24,-0.07,9.22,-0.04,0.02,-0.01,22.69
7069962.0,0.27,-0.08,9.19,-0.04,0.03,-0.01,22.69
7092962.0,0.29,-0.01,9.23,-0.04,0.03,-0.01,22.69
7115962.0,0.26,-0.02,9.17,-0.04,0.02,-0.01,22.65
7138962.0,0.27,-0.01,9.18,-0.04,0.03,-0.01,22.74
7161962.0,0.28,-0.11,9.19,-0.04,0.02,-0.01,22.74
7184962.0,0.22,-0.03,9.21,-0.04,0.02,-0.01,22.65
7207962.0,0.24,-0.02,9.21,-0.04,0.02,-0.01,22.69
7230962.0,0.28,-0.07,9.17,-0.04,0.02,-0.01,22.69
7253962.0,0.26,-0.07,9.22,-0.04,0.03,-0.01,22.79
7276962.0,0.28,-0.03,9.18,-0.05,0.02,-0.01,22.79
7299962.0,0.3,-0.06,9.2,-0.04,0.03,-0.01,22.65
7322962.0,0.25,0.01,9.22,-0.04,0.03,-0.01,22.74
7345962.0,0.28,-0.05,9.17,-0.04,0.03,-0.01,22.65
7368962.0,0.3,0.04,9.27,-0.04,0.03,-0.01,22.74
7391962.0,0.27,-0.08,9.16,-0.04,0.02,-0.01,22.79
7414962.0,0.26,-0.05,9.23,-0.05,0.02,-0.01,22.79
7437962.0,0.25,-0.06,9.1,-0.04,0.02,-0.01,22.69
7460962.0,0.25,-0.05,9.2,-0.04,0.02,-0.01,22.69
7483962.0,0.28,-0.04,9.19,-0.04,0.02,-0.01,22.74
7506962.0,0.27,-0.03,9.21,-0.04,0.02,-0.01,22.74
7529962.0,0.25,0.02,9.24,-0.04,0.03,-0.01,22.74
7552962.0,0.23,-0.05,9.25,-0.04,0.02,-0.01,22.65
7575962.0,0.21,-0.04,9.2,-0.04,0.03,-0.01,22.69
7598962.0,0.26,-0.05,9.18,-0.04,0.03,-0.01,22.69
7621962.0,0.27,-0.05,9.14,-0.04,0.02,-0.01,22.79
7644962.0,0.27,-0.04,9.18,-0.04,0.03,-0.01,22.69
7667962.0,0.27,-0.07,9.23,-0.04,0.03,-0.01,22.79
7690962.0,0.24,0.0,9.15,-0.04,0.02,-0.01,22.69
7713962.0,0.29,-0.05,9.1,-0.05,0.02,-0.01,22.74
7736962.0,0.21,-0.01,9.2,-0.04,0.02,-0.01,22.74
7759962.0,0.3,-0.05,9.16,-0.04,0.03,-0.01,22.79
7782962.0,0.31,-0.07,9.23,-0.04,0.02,-0.01,22.69
7805962.0,0.27,-0.05,9.21,-0.04,0.02,-0.01,22.79
7828962.0,0.25,-0.06,9.25,-0.05,0.03,-0.01,22.79
7851962.0,0.26,-0.05,9.16,-0.04,0.03,-0.01,22.74
7874962.0,0.26,-0.03,9.26,-0.04,0.03,-0.01,22.65
7897962.0,0.26,-0.03,9.2,-0.04,0.02,-0.01,22.74
7920962.0,0.26,-0.04,9.16,-0.05,0.02,-0.01,22.65
7943962.0,0.27,-0.06,9.15,-0.04,0.03,-0.01,22.69
7966962.0,0.27,-0.03,9.19,-0.04,0.02,-0.01,22.69
7989962.0,0.22,-0.0,9.15,-0.04,0.03,-0.01,22.69
8012962.0,0.23,-0.04,9.18,-0.04,0.03,-0.01,22.79
8035962.0,0.22,-0.0,9.3,-0.04,0.03,-0.01,22.74
8058962.0,0.28,-0.04,9.24,-0.04,0.02,-0.01,22.65
8081962.0,0.29,-0.07,9.22,-0.04,0.02,-0.01,22.74
8104962.0,0.26,-0.04,9.22,-0.04,0.03,-0.01,22.74
8127962.0,0.27,-0.02,9.17,-0.05,0.03,-0.01,22.69
8150962.0,0.28,-0.01,9.16,-0.04,0.02,-0.01,22.69
8173962.0,0.28,-0.05,9.2,-0.04,0.03,-0.01,22.69
8196962.0,0.2,-0.03,9.21,-0.04,0.03,-0.01,22.69
8219962.0,0.21,-0.08,9.22,-0.05,0.03,-0.01,22.74
8242962.0,0.27,-0.07,9.14,-0.04,0.03,-0.01,22.65
8265962.0,0.27,-0.01,9.15,-0.04,0.03,-0.01,22.65
8288962.0,0.26,-0.07,9.28,-0.04,0.02,-0.01,22.74
8311962.0,0.31,-0.06,9.13,-0.04,0.03,-0.01,22.79
8334962.0,0.29,-0.05,9.16,-0.04,0.02,-0.01,22.79
8357962.0,0.27,-0.08,9.17,-0.04,0.02,-0.01,22.69
8380962.0,0.23,-0.0,9.17,-0.04,0.03,-0.01,22.69
8403962.0,0.23,-0.02,9.2,-0.04,0.03,-0.01,22.69
8426962.0,0.23,-0.07,9.17,-0.04,0.03,-0.01,22.69
8449962.0,0.32,-0.05,9.14,-0.05,0.02,-0.01,22.74
8472962.0,0.27,-0.07,9.1,-0.04,0.02,-0.01,22.74
8495962.0,0.25,-0.06,9.12,-0.04,0.03,-0.01,22.69
8518962.0,0.22,-0.07,9.17,-0.04,0.03,-0.01,22.6
8541962.0,0.27,-0.05,9.25,-0.04,0.02,-0.01,22.79
8564962.0,0.25,0.0,9.12,-0.04,0.02,-0.01,22.79
8587962.0,0.23,-0.05,9.17,-0.04,0.03,-0.01,22.74
8610962.0,0.24,-0.05,9.13,-0.04,0.02,-0.01,22.74
8633962.0,0.29,0.01,9.23,-0.04,0.02,-0.01,22.74
8656962.0,0.29,-0.06,9.1,-0.04,0.03,-0.01,22.74
8679962.0,0.25,-0.09,9.19,-0.04,0.03,-0.01,22.69
8702962.0,0.25,-0.02,9.23,-0.04,0.02,-0.01,22.79
8725962.0,0.27,-0.05,9.16,-0.04,0.02,-0.01,22.69
8748962.0,0.3,-0.07,9.28,-0.04,0.02,-0.01,22.79
8771962.0,0.32,-0.16,9.11,-0.04,0.02,-0.01,22.74
8794962.0,0.3,0.05,9.1,-0.04,0.03,-0.01,22.74
8817962.0,0.23,-0.01,9.24,-0.04,0.02,-0.01,22.84
8840962.0,0.29,-0.03,9.15,-0.04,0.03,-0.01,22.74
8863962.0,0.31,0.01,9.1,-0.04,0.02,-0.01,22.79
8886962.0,0.24,-0.07,9.21,-0.04,0.02,-0.01,22.69
8909962.0,0.3,-0.01,9.11,-0.04,0.03,-0.01,22.79
8932962.0,0.28,-0.01,9.2,-0.04,0.02,-0.01,22.79
8955962.0,0.29,-0.07,9.28,-0.04,0.03,-0.01,22.74
8978962.0,0.29,-0.02,9.14,-0.04,0.02,-0.01,22.84
9001962.0,0.25,-0.02,9.2,-0.04,0.03,-0.01,22.74
9024962.0,0.28,-0.05,9.11,-0.04,0.02,-0.01,22.74
9047962.0,0.29,-0.03,9.23,-0.04,0.02,-0.01,22.79
9070962.0,0.3,-0.05,9.17,-0.04,0.02,-0.01,22.79
9093962.0,0.23,-0.02,9.25,-0.04,0.02,-0.01,22.79
9116962.0,0.29,-0.02,9.13,-0.04,0.02,-0.01,22.79
9139962.0,0.29,-0.0,9.22,-0.05,0.02,-0.01,22.69
9162962.0,0.27,-0.09,9.29,-0.04,0.03,-0.01,22.79
9185962.0,0.32,-0.12,9.22,-0.04,0.02,-0.01,22.74
9208962.0,0.2,-0.05,9.12,-0.04,0.02,-0.01,22.65
9231962.0,0.25,-0.06,9.11,-0.04,0.03,-0.01,22.69
9254962.0,0.3,-0.01,9.17,-0.04,0.03,-0.01,22.79
9277962.0,0.28,-0.1,9.14,-0.04,0.02,-0.01,22.79
9300962.0,0.26,-0.05,9.17,-0.04,0.02,-0.01,22.79
9323962.0,0.31,-0.08,9.18,-0.04,0.03,-0.01,22.74
9346962.0,0.31,-0.07,9.22,-0.04,0.02,-0.01,22.74
9369962.0,0.29,-0.05,9.17,-0.04,0.02,-0.01,22.74
9392962.0,0.3,-0.04,9.17,-0.04,0.03,-0.01,22.74
9415962.0,0.24,-0.04,9.1,-0.04,0.03,-0.01,22.69
9438962.0,0.27,-0.05,9.18,-0.04,0.02,-0.01,22.69
9461962.0,0.28,-0.05,9.2,-0.04,0.03,-0.01,22.69
9484962.0,0.24,-0.08,9.25,-0.05,0.02,-0.01,22.79
9507962.0,0.29,-0.01,9.23,-0.04,0.03,-0.01,22.65
9530962.0,0.26,-0.08,9.21,-0.04,0.02,-0.01,22.74
9553962.0,0.28,-0.06,9.2,-0.04,0.03,-0.01,22.74
9576962.0,0.23,-0.02,9.15,-0.04,0.02,-0.01,22.74
9599962.0,0.28,-0.02,9.15,-0.04,0.03,-0.01,22.79
9622962.0,0.27,-0.05,9.21,-0.04,0.03,-0.01,22.69
9645962.0,0.27,-0.1,9.21,-0.04,0.03,-0.01,22.79
9668962.0,0.24,-0.03,9.1,-0.05,0.03,-0.01,22.79
9691962.0,0.34,-0.06,9.25,-0.04,0.03,-0.01,22.74
9714962.0,0.31,-0.07,9.25,-0.04,0.02,-0.01,22.74
9737962.0,0.26,-0.08,9.08,-0.04,0.02,-0.01,22.74
9760962.0,0.25,-0.04,9.18,-0.04,0.02,-0.01,22.74
9783962.0,0.25,-0.0,9.26,-0.04,0.02,-0.01,22.79
9806962.0,0.31,-0.03,9.19,-0.04,0.02,-0.01,22.69
9829962.0,0.3,-0.07,9.19,-0.04,0.03,-0.01,22.79
9852962.0,0.29,-0.1,9.29,-0.04,0.02,-0.01,22.69
9875962.0,0.27,-0.03,9.26,-0.04,0.02,-0.01,22.79
9898962.0,0.3,-0.0,9.26,-0.04,0.02,-0.01,22.65
9921962.0,0.25,-0.01,9.19,-0.04,0.03,-0.01,22.84
9944962.0,0.25,-0.07,9.13,-0.04,0.02,-0.01,22.74
9967962.0,0.28,-0.02,9.17,-0.04,0.02,-0.01,22.79
9990962.0,0.26,-0.06,9.17,-0.04,0.03,-0.01,22.79
10013962.0,0.27,-0.07,9.11,-0.04,0.02,-0.01,22.79
10036962.0,0.25,-0.06,9.18,-0.04,0.03,-0.01,22.69
10059962.0,0.36,-0.06,9.23,-0.04,0.03,-0.01,22.84
10082962.0,0.32,-0.1,9.22,-0.04,0.02,-0.01,22.74
10105962.0,0.23,-0.07,9.2,-0.04,0.02,-0.01,22.74
10128962.0,0.27,-0.05,9.19,-0.04,0.03,-0.01,22.74
10151962.0,0.25,-0.03,9.14,-0.04,0.02,-0.01,22.69
10174962.0,0.28,-0.07,9.25,-0.04,0.02,-0.01,22.69
10197962.0,0.26,-0.05,9.12,-0.04,0.02,-0.01,22.79
10220962.0,0.23,-0.05,9.15,-0.04,0.03,-0.01,22.79
10243962.0,0.31,-0.07,9.26,-0.04,0.03,-0.01,22.84
10266962.0,0.23,-0.06,9.16,-0.04,0.02,-0.01,22.74
10289962.0,0.24,-0.04,9.23,-0.04,0.02,-0.01,22.74
10312962.0,0.21,0.02,9.21,-0.04,0.02,-0.01,22.84
10335962.0,0.25,-0.05,9.28,-0.04,0.02,-0.01,22.79
10358962.0,0.26,0.02,9.17,-0.04,0.03,-0.01,22.69
10381962.0,0.25,-0.01,9.18,-0.04,0.02,-0.01,22.69
10404962.0,0.27,-0.02,9.18,-0.04,0.02,-0.01,22.79
10427962.0,0.24,-0.1,9.14,-0.05,0.03,-0.01,22.84
10450962.0,0.27,-0.01,9.22,-0.04,0.02,-0.01,22.74
10473962.0,0.29,-0.08,9.18,-0.04,0.03,-0.01,22.84
10496962.0,0.3,-0.04,9.22,-0.04,0.03,-0.01,22.74
10519962.0,0.24,-0.03,9.24,-0.05,0.02,-0.01,22.79
10542962.0,0.28,-0.07,9.16,-0.05,0.02,-0.01,22.79
10565962.0,0.34,-0.03,9.16,-0.04,0.03,-0.01,22.69
10588962.0,0.31,-0.03,9.16,-0.04,0.03,-0.01,22.69
10611962.0,0.3,-0.07,9.25,-0.04,0.02,-0.01,22.79
10634962.0,0.26,-0.03,9.13,-0.05,0.02,-0.01,22.65
10657962.0,0.22,-0.02,9.15,-0.04,0.03,-0.01,22.74
10680962.0,0.26,-0.04,9.18,-0.04,0.03,-0.01,22.74
10703962.0,0.21,-0.11,9.11,-0.04,0.02,-0.01,22.69
10726962.0,0.29,-0.05,9.13,-0.04,0.03,-0.01,22.69
10749962.0,0.33,0.01,9.21,-0.04,0.03,-0.01,22.69
10772962.0,0.26,-0.04,9.22,-0.04,0.03,-0.01,22.69
10795962.0,0.23,-0.06,9.15,-0.04,0.03,-0.01,22.74
10818962.0,0.23,-0.04,9.26,-0.04,0.02,-0.01,22.74
10841962.0,0.24,-0.03,9.21,-0.04,0.02,-0.01,22.74
10864962.0,0.27,-0.1,9.2,-0.04,0.02,-0.01,22.74
10887962.0,0.2,-0.06,9.18,-0.04,0.02,-0.01,22.69
10910962.0,0.3,-0.02,9.18,-0.04,0.02,-0.01,22.69
10933962.0,0.27,-0.12,9.26,-0.04,0.02,-0.01,22.69
10956962.0,0.22,-0.04,9.27,-0.04,0.03,-0.01,22.79
10979962.0,0.29,-0.11,9.24,-0.04,0.02,-0.01,22.74
11002962.0,0.31,-0.06,9.16,-0.04,0.02,-0.01,22.74
11025962.0,0.25,-0.05,9.27,-0.04,0.03,-0.01,22.74
11048962.0,0.26,-0.09,9.25,-0.04,0.03,-0.01,22.74
11071962.0,0.25,-0.03,9.11,-0.04,0.03,-0.01,22.79
11094962.0,0.22,-0.03,9.21,-0.04,0.02,-0.01,22.79
11117962.0,0.22,-0.07,9.27,-0.04,0.03,-0.01,22.88
11140962.0,0.29,-0.04,9.19,-0.05,0.02,-0.01,22.69
11163962.0,0.33,-0.04,9.19,-0.04,0.02,-0.01,22.74
11186962.0,0.25,-0.06,9.27,-0.04,0.03,-0.01,22.74
11209962.0,0.27,-0.09,9.17,-0.04,0.02,-0.01,22.84
11232962.0,0.26,-0.02,9.2,-0.05,0.02,-0.01,22.74
11255962.0,0.23,-0.06,9.16,-0.04,0.03,-0.01,22.79
11278962.0,0.3,0.0,9.23,-0.04,0.02,-0.01,22.79
11301962.0,0.23,0.04,9.2,-0.04,0.02,-0.01,22.69
11324962.0,0.31,-0.05,9.21,-0.04,0.03,-0.01,22.69
11347962.0,0.24,-0.05,9.15,-0.04,0.03,-0.01,22.69
11370962.0,0.28,0.0,9.29,-0.04,0.03,-0.01,22.65
11393962.0,0.25,-0.03,9.11,-0.04,0.02,-0.01,22.74
11416962.0,0.18,0.05,9.24,-0.04,0.02,-0.01,22.74
11439962.0,0.26,-0.02,9.26,-0.05,0.03,-0.01,22.79
11462962.0,0.27,-0.06,9.2,-0.04,0.02,-0.01,22.79
11485962.0,0.32,-0.09,9.12,-0.04,0.02,-0.01,22.69
11508962.0,0.3,-0.05,9.19,-0.04,0.02,-0.01,22.79
11531962.0,0.25,-0.02,9.17,-0.04,0.03,-0.01,22.74
11554962.0,0.25,-0.04,9.21,-0.05,0.02,-0.01,22.84
11577962.0,0.32,-0.05,9.21,-0.04,0.03,-0.01,22.74
11600962.0,0.3,-0.03,9.2,-0.04,0.03,-0.01,22.84
11623962.0,0.23,-0.05,9.21,-0.04,0.03,-0.01,22.69
11646962.0,0.25,-0.02,9.14,-0.04,0.02,-0.01,22.69
11669962.0,0.28,-0.02,9.19,-0.04,0.03,-0.01,22.69
11692962.0,0.27,-0.03,9.21,-0.04,0.03,-0.01,22.69
11715962.0,0.29,0.03,9.18,-0.04,0.02,-0.01,22.65
11738962.0,0.31,0.0,9.22,-0.04,0.03,-0.01,22.84
11761962.0,0.28,-0.08,9.21,-0.04,0.03,-0.01,22.74
11784962.0,0.33,-0.06,9.21,-0.04,0.03,-0.01,22.74
11807962.0,0.27,-0.01,9.22,-0.04,0.03,-0.01,22.79
11830962.0,0.25,-0.01,9.21,-0.05,0.02,-0.01,22.69
11853962.0,0.28,-0.04,9.15,-0.04,0.02,-0.01,22.69
11876962.0,0.25,-0.02,9.08,-0.04,0.02,-0.01,22.69
11899962.0,0.29,-0.08,9.19,-0.04,0.02,-0.01,22.65
11922962.0,0.26,-0.02,9.12,-0.04,0.02,-0.01,22.74
11945962.0,0.26,-0.04,9.22,-0.04,0.02,-0.01,22.74
11968962.0,0.3,-0.04,9.24,-0.05,0.02,-0.01,22.74
11991962.0,0.25,-0.01,9.07,-0.04,0.03,-0.01,22.69
12014962.0,0.3,-0.06,9.13,-0.04,0.03,-0.01,22.79
12037962.0,0.35,-0.09,9.21,-0.05,0.02,-0.01,22.88
12060962.0,0.21,-0.08,9.17,-0.04,0.03,-0.01,22.69
12083962.0,0.32,-0.02,9.17,-0.04,0.03,-0.01,22.79
12106962.0,0.24,0.0,9.14,-0.05,0.02,-0.01,22.74
12129962.0,0.26,-0.04,9.22,-0.04,0.02,-0.01,22.84
12152962.0,0.3,-0.07,9.24,-0.04,0.02,-0.01,22.74
12175962.0,0.28,-0.01,9.12,-0.04,0.03,-0.01,22.69
12198962.0,0.32,-0.05,9.23,-0.04,0.02,-0.01,22.79
12221962.0,0.27,-0.05,9.11,-0.05,0.03,-0.01,22.69
12244962.0,0.27,-0.0,9.13,-0.04,0.02,-0.01,22.79
12267962.0,0.27,0.01,9.17,-0.04,0.02,-0.01,22.84
12290962.0,0.27,-0.04,9.21,-0.04,0.02,-0.01,22.74
12313962.0,0.3,-0.03,9.14,-0.04,0.02,-0.01,22.84
12336962.0,0.29,-0.08,9.13,-0.04,0.03,-0.01,22.65
12359962.0,0.32,-0.07,9.15,-0.04,0.03,-0.01,22.79
12382962.0,0.24,0.0,9.15,-0.04,0.03,-0.01,22.79
12405962.0,0.34,-0.06,9.23,-0.04,0.03,-0.01,22.79
12428962.0,0.29,-0.06,9.12,-0.04,0.02,-0.01,22.79
12451962.0,0.26,-0.05,9.25,-0.04,0.03,-0.01,22.74
12474962.0,0.29,-0.02,9.22,-0.04,0.02,-0.01,22.74
12497962.0,0.29,-0.0,9.18,-0.04,0.03,-0.01,22.84
12520962.0,0.24,-0.06,9.19,-0.04,0.03,-0.01,22.65
12543962.0,0.27,-0.01,9.24,-0.04,0.03,-0.01,22.79
12566962.0,0.29,-0.03,9.2,-0.04,0.03,-0.01,22.79
12589962.0,0.19,-0.06,9.17,-0.04,0.02,-0.01,22.79
12612962.0,0.27,-0.03,9.15,-0.04,0.03,-0.01,22.69
12635962.0,0.26,0.0,9.17,-0.04,0.03,-0.01,22.74
12658962.0,0.27,-0.01,9.22,-0.04,0.02,-0.01,22.84
12681962.0,0.28,-0.03,9.16,-0.04,0.02,-0.01,22.74
12704962.0,0.31,-0.0,9.17,-0.04,0.03,-0.01,22.84
12727962.0,0.27,-0.03,9.19,-0.04,0.03,-0.01,22.69
12750962.0,0.25,-0.08,9.22,-0.04,0.03,-0.01,22.79
12773962.0,0.23,-0.06,9.12,-0.05,0.03,-0.01,22.69
12796962.0,0.26,-0.08,9.13,-0.04,0.03,-0.01,22.79
12819962.0,0.24,-0.09,9.11,-0.04,0.02,-0.01,22.88
12842962.0,0.28,-0.04,9.13,-0.04,0.02,-0.01,22.74
12865962.0,0.24,0.01,9.17,-0.04,0.03,-0.01,22.74
12888962.0,0.3,-0.02,9.27,-0.04,0.03,-0.01,22.74
12911962.0,0.26,-0.02,9.2,-0.04,0.03,-0.01,22.69
12934962.0,0.28,-0.05,9.2,-0.04,0.02,-0.01,22.79
12957962.0,0.26,-0.04,9.2,-0.05,0.02,-0.01,22.69
12980962.0,0.26,-0.02,9.25,-0.04,0.02,-0.01,22.88
13003962.0,0.27,-0.02,9.23,-0.04,0.03,-0.01,22.84
13026962.0,0.23,0.0,9.23,-0.04,0.02,-0.01,22.65
13049962.0,0.27,-0.04,9.17,-0.04,0.03,-0.01,22.65
13072962.0,0.18,-0.05,9.16,-0.04,0.02,-0.01,22.74
13095962.0,0.24,-0.1,9.22,-0.04,0.02,-0.01,22.79
13118962.0,0.37,-0.06,9.2,-0.05,0.02,-0.01,22.79
13141962.0,0.28,-0.04,9.15,-0.05,0.02,-0.01,22.79
13164962.0,0.28,-0.06,9.17,-0.04,0.02,-0.01,22.69
13187962.0,0.28,-0.08,9.25,-0.04,0.03,-0.01,22.74
13210962.0,0.28,-0.01,9.24,-0.04,0.03,-0.01,22.74
13233962.0,0.23,-0.08,9.21,-0.04,0.02,-0.01,22.74
13256962.0,0.23,0.01,9.13,-0.04,0.02,-0.01,22.84
13279962.0,0.26,-0.07,9.22,-0.04,0.02,-0.01,22.79
13302962.0,0.27,-0.05,9.18,-0.04,0.02,-0.01,22.79
13325962.0,0.27,-0.04,9.14,-0.04,0.02,-0.01,22.69
13348962.0,0.27,-0.07,9.24,-0.04,0.02,-0.01,22.79
13371962.0,0.28,0.01,9.2,-0.04,0.03,-0.01,22.74
13394962.0,0.29,0.01,9.16,-0.05,0.02,-0.01,22.74
13417962.0,0.29,-0.06,9.11,-0.04,0.02,-0.01,22.84
13440962.0,0.26,-0.06,9.22,-0.04,0.02,-0.01,22.74
13463962.0,0.3,0.02,9.11,-0.04,0.02,-0.01,22.79
13486962.0,0.24,-0.03,9.2,-0.04,0.02,-0.01,22.79
13509962.0,0.28,-0.03,9.22,-0.04,0.02,-0.01,22.69
13532962.0,0.32,0.0,9.2,-0.04,0.03,-0.01,22.79
13555962.0,0.26,-0.03,9.23,-0.04,0.03,-0.01,22.79
13578962.0,0.25,-0.06,9.19,-0.04,0.03,-0.01,22.84
13601962.0,0.27,-0.04,9.25,-0.04,0.03,-0.01,22.74
13624962.0,0.26,-0.09,9.19,-0.04,0.03,-0.01,22.74
13647962.0,0.24,-0.06,9.16,-0.04,0.02,-0.01,22.79
13670962.0,0.28,-0.06,9.17,-0.04,0.03,-0.01,22.79
13693962.0,0.34,-0.02,9.15,-0.04,0.02,-0.01,22.88
13716962.0,0.33,-0.06,9.22,-0.04,0.02,-0.01,22.88
13739962.0,0.22,-0.01,9.12,-0.04,0.03,-0.01,22.84
13762962.0,0.2,-0.03,9.17,-0.04,0.02,-0.01,22.84
13785962.0,0.27,-0.06,9.22,-0.04,0.02,-0.01,22.74
13808962.0,0.28,-0.07,9.16,-0.04,0.02,-0.01,22.74
13831962.0,0.28,-0.05,9.17,-0.04,0.02,-0.01,22.69
13854962.0,0.26,-0.07,9.25,-0.04,0.03,-0.01,22.79
13877962.0,0.22,-0.02,9.19,-0.04,0.02,-0.01,22.79
13900962.0,0.28,-0.05,9.17,-0.04,0.02,-0.01,22.69
13923962.0,0.27,-0.01,9.17,-0.05,0.03,-0.01,22.74
13946962.0,0.18,-0.0,9.28,-0.04,0.02,-0.01,22.74
13969962.0,0.25,-0.07,9.22,-0.04,0.03,-0.01,22.84
13992962.0,0.32,0.0,9.17,-0.04,0.02,-0.01,22.74
14015962.0,0.27,-0.01,9.21,-0.04,0.03,-0.01,22.88
14038962.0,0.31,-0.02,9.19,-0.05,0.03,-0.01,22.79
14061962.0,0.26,-0.08,9.2,-0.04,0.03,-0.01,22.79
14084962.0,0.26,-0.04,9.16,-0.04,0.03,-0.01,22.79
14107962.0,0.25,-0.04,9.22,-0.04,0.02,-0.01,22.84
14130962.0,0.28,0.01,9.2,-0.04,0.02,-0.01,22.74
14153962.0,0.34,-0.06,9.09,-0.04,0.03,-0.01,22.93
14176962.0,0.23,-0.06,9.18,-0.04,0.03,-0.01,22.84
14199962.0,0.27,-0.07,9.11,-0.04,0.02,-0.01,22.79
14222962.0,0.23,-0.05,9.06,-0.04,0.02,-0.01,22.69
14245962.0,0.24,0.01,9.19,-0.05,0.02,-0.01,22.79
14268962.0,0.28,-0.1,9.2,-0.04,0.03,-0.01,22.88
14291962.0,0.26,-0.06,9.2,-0.04,0.03,-0.01,22.79
14314962.0,0.27,-0.04,9.18,-0.04,0.03,-0.01,22.84
14337962.0,0.25,-0.05,9.2,-0.04,0.02,-0.01,22.74
14360962.0,0.24,-0.05,9.19,-0.04,0.02,-0.01,22.74
14383962.0,0.29,-0.06,9.24,-0.04,0.03,-0.01,22.79
14406962.0,0.28,0.0,9.22,-0.04,0.03,-0.01,22.69
14429962.0,0.28,-0.06,9.13,-0.04,0.02,-0.01,22.79
14452962.0,0.28,-0.01,9.18,-0.04,0.03,-0.01,22.69
14475962.0,0.23,-0.05,9.22,-0.04,0.03,-0.01,22.74
14498962.0,0.24,-0.1,9.26,-0.04,0.03,-0.01,22.84
14521962.0,0.35,-0.04,9.13,-0.04,0.03,-0.01,22.74
14544962.0,0.27,-0.01,9.25,-0.04,0.03,-0.01,22.84
14567962.0,0.27,-0.11,9.19,-0.04,0.03,-0.01,22.69
14590962.0,0.3,0.02,9.18,-0.04,0.03,-0.01,22.69
14613962.0,0.28,-0.04,9.2,-0.04,0.02,-0.01,22.88
14636962.0,0.24,-0.0,9.23,-0.04,0.02,-0.01,22.88
14659962.0,0.24,-0.03,9.18,-0.04,0.03,-0.01,22.84
14682962.0,0.23,-0.02,9.3,-0.04,0.03,-0.01,22.84
14705962.0,0.23,-0.03,9.21,-0.04,0.03,-0.01,22.84
14728962.0,0.29,-0.02,9.16,-0.04,0.02,-0.01,22.79
14751962.0,0.27,-0.02,9.1,-0.04,0.03,-0.01,22.79
14774962.0,0.27,-0.05,9.2,-0.04,0.03,-0.01,22.69
14797962.0,0.26,-0.06,9.18,-0.04,0.03,-0.01,22.79
14820962.0,0.28,-0.04,9.11,-0.04,0.02,-0.01,22.65
14843962.0,0.24,0.01,9.16,-0.04,0.02,-0.01,22.84
14866962.0,0.32,-0.03,9.24,-0.04,0.02,-0.01,22.74
14889962.0,0.25,0.0,9.22,-0.04,0.02,-0.01,22.84
14912962.0,0.22,-0.02,9.19,-0.04,0.02,-0.01,22.79
14935962.0,0.24,-0.06,9.14,-0.04,0.02,-0.01,22.79
14958962.0,0.31,-0.05,9.22,-0.04,0.02,-0.01,22.79
14981962.0,0.23,-0.03,9.12,-0.05,0.02,-0.01,22.79
15004962.0,0.32,-0.09,9.15,-0.04,0.03,-0.01,22.79
15027962.0,0.3,-0.04,9.16,-0.04,0.03,-0.01,22.79
15050962.0,0.26,-0.07,9.19,-0.04,0.03,-0.01,22.84
15073962.0,0.26,-0.05,9.18,-0.04,0.02,-0.01,22.84
15096962.0,0.34,-0.06,9.08,-0.04,0.03,-0.01,22.79
15119962.0,0.27,-0.03,9.12,-0.04,0.02,-0.01,22.88
15142962.0,0.27,-0.01,9.22,-0.04,0.03,-0.01,22.79
15165962.0,0.25,0.02,9.2,-0.04,0.03,-0.01,22.79
15188962.0,0.27,0.04,9.29,-0.04,0.03,-0.01,22.84
15211962.0,0.27,-0.09,9.22,-0.04,0.03,-0.01,22.74
15234962.0,0.25,-0.05,9.18,-0.04,0.03,-0.01,22.84
15257962.0,0.2,-0.07,9.13,-0.04,0.03,-0.01,22.84
15280962.0,0.31,-0.04,9.15,-0.04,0.03,-0.01,22.79
15303962.0,0.25,-0.03,9.12,-0.04,0.02,-0.01,22.79
15326962.0,0.3,-0.03,9.1,-0.04,0.03,-0.01,22.79
15349962.0,0.31,-0.06,9.18,-0.04,0.02,-0.01,22.79
15372962.0,0.3,-0.02,9.14,-0.04,0.03,-0.01,22.74
15395962.0,0.24,-0.07,9.15,-0.04,0.02,-0.01,22.84
15418962.0,0.3,-0.03,9.2,-0.05,0.02,-0.01,22.65
15441962.0,0.24,-0.0,9.28,-0.04,0.02,-0.01,22.74
15464962.0,0.26,-0.03,9.21,-0.04,0.02,-0.01,22.79
15487962.0,0.24,-0.07,9.18,-0.05,0.02,-0.01,22.79
15510962.0,0.3,-0.04,9.18,-0.04,0.03,-0.01,22.79
15533962.0,0.27,0.03,9.21,-0.04,0.03,-0.01,22.69
15556962.0,0.2,-0.12,9.28,-0.04,0.03,-0.01,22.74
15579962.0,0.27,-0.0,9.18,-0.04,0.02,-0.01,22.74
15602962.0,0.29,-0.07,9.25,-0.04,0.03,-0.01,22.74
15625962.0,0.25,-0.07,9.11,-0.04,0.02,-0.01,22.74
15648962.0,0.21,-0.06,9.19,-0.05,0.03,-0.01,22.69
15671962.0,0.24,-0.05,9.23,-0.05,0.02,-0.01,22.88
15694962.0,0.21,-0.1,9.15,-0.04,0.03,-0.01,22.79
15717962.0,0.25,-0.04,9.22,-0.04,0.03,-0.01,22.79
15740962.0,0.26,-0.05,9.19,-0.04,0.02,-0.01,22.79
15763962.0,0.29,-0.08,9.1,-0.04,0.03,-0.01,22.79
15786962.0,0.25,-0.04,9.21,-0.04,0.02,-0.01,22.74
15809962.0,0.27,-0.01,9.24,-0.04,0.02,-0.01,22.84
15832962.0,0.24,-0.03,9.29,-0.04,0.03,-0.01,22.79
15855962.0,0.27,0.02,9.16,-0.05,0.03,-0.01,22.79
15878962.0,0.26,-0.0,9.2,-0.04,0.02,-0.01,22.69
15901962.0,0.24,-0.1,9.2,-0.04,0.03,-0.01,22.79
15924962.0,0.25,-0.0,9.16,-0.04,0.02,-0.01,22.74
15947962.0,0.25,-0.04,9.19,-0.04,0.03,-0.01,22.84
15970962.0,0.29,-0.02,9.12,-0.04,0.03,-0.01,22.93
15993962.0,0.26,0.01,9.23,-0.05,0.03,-0.01,22.84
16016962.0,0.29,-0.04,9.09,-0.04,0.02,-0.01,22.79
16039962.0,0.28,-0.08,9.17,-0.04,0.03,-0.01,22.79
16062962.0,0.25,-0.03,9.19,-0.04,0.03,-0.01,22.79
16085962.0,0.22,-0.07,9.17,-0.04,0.02,-0.01,22.88
16108962.0,0.23,-0.09,9.17,-0.04,0.03,-0.01,22.93
16131962.0,0.18,-0.03,9.16,-0.04,0.03,-0.01,22.84
16154962.0,0.3,-0.02,9.19,-0.05,0.02,-0.01,22.84
16177962.0,0.32,-0.05,9.2,-0.04,0.03,-0.01,22.84
16200962.0,0.25,-0.03,9.3,-0.04,0.03,-0.01,22.79
16223962.0,0.27,0.0,9.17,-0.04,0.03,-0.01,22.79
16246962.0,0.26,0.01,9.23,-0.04,0.02,-0.01,22.79
16269962.0,0.31,-0.07,9.23,-0.04,0.03,-0.01,22.79
16292962.0,0.25,-0.06,9.2,-0.04,0.02,-0.01,22.84
16315962.0,0.26,-0.05,9.13,-0.04,0.03,-0.01,22.74
16338962.0,0.29,-0.0,9.17,-0.04,0.02,-0.01,22.74
16361962.0,0.23,-0.04,9.28,-0.04,0.02,-0.01,22.84
16384962.0,0.33,0.01,9.12,-0.04,0.02,-0.01,22.88
16407962.0,0.22,-0.07,9.21,-0.04,0.03,-0.01,22.79
16430962.0,0.3,-0.04,9.17,-0.04,0.02,-0.01,22.69
16453962.0,0.35,0.0,9.19,-0.04,0.02,-0.01,22.79
16476962.0,0.23,-0.05,9.27,-0.04,0.02,-0.01,22.79
16499962.0,0.27,-0.07,9.21,-0.04,0.03,-0.01,22.79
16522962.0,0.2,-0.12,9.2,-0.04,0.03,-0.01,22.74
16545962.0,0.23,-0.06,9.2,-0.04,0.02,-0.01,22.74
16568962.0,0.23,-0.1,9.26,-0.04,0.03,-0.01,22.69
16591962.0,0.27,-0.04,9.15,-0.04,0.02,-0.01,22.79
16614962.0,0.28,-0.05,9.22,-0.04,0.03,-0.01,22.79
16637962.0,0.26,-0.02,9.15,-0.04,0.03,-0.01,22.79
16660962.0,0.29,-0.03,9.19,-0.04,0.03,-0.01,22.74
16683962.0,0.28,-0.05,9.16,-0.04,0.02,-0.01,22.84
16706962.0,0.23,-0.07,9.13,-0.04,0.02,-0.01,22.84
16729962.0,0.29,-0.06,9.14,-0.04,0.03,-0.01,22.84
16752962.0,0.32,-0.01,9.19,-0.04,0.03,-0.01,22.69
16775962.0,0.26,0.01,9.14,-0.04,0.03,-0.01,22.79
16798962.0,0.24,-0.06,9.24,-0.05,0.03,-0.01,22.79
16821962.0,0.33,-0.04,9.23,-0.04,0.03,-0.01,22.79
16844962.0,0.29,-0.07,9.16,-0.04,0.03,-0.01,22.84
16867962.0,0.28,-0.04,9.25,-0.04,0.02,-0.01,22.74
16890962.0,0.29,-0.0,9.24,-0.04,0.02,-0.01,22.74
16913962.0,0.31,-0.03,9.26,-0.04,0.03,-0.01,22.84
16936962.0,0.21,0.0,9.21,-0.04,0.02,-0.01,22.79
16959962.0,0.29,-0.04,9.2,-0.04,0.03,-0.01,22.79
16982962.0,0.24,-0.07,9.2,-0.04,0.02,-0.01,22.79
17005962.0,0.22,-0.06,9.28,-0.04,0.03,-0.01,22.79
17028962.0,0.21,-0.01,9.19,-0.04,0.03,-0.01,22.84
17051962.0,0.2,-0.04,9.13,-0.04,0.02,-0.01,22.74
17074962.0,0.34,-0.05,9.17,-0.04,0.03,-0.01,22.74
17097962.0,0.24,-0.09,9.13,-0.04,0.03,-0.01,22.84
17120962.0,0.27,-0.04,9.13,-0.04,0.02,-0.01,22.79
17143962.0,0.25,-0.03,9.14,-0.05,0.02,-0.01,22.69
17166962.0,0.27,0.01,9.24,-0.04,0.02,-0.01,22.69
17189962.0,0.31,-0.02,9.19,-0.04,0.02,-0.01,22.98
17212962.0,0.27,-0.09,9.25,-0.04,0.02,-0.01,22.79
17235962.0,0.22,-0.07,9.23,-0.04,0.03,-0.01,22.79
17258962.0,0.28,-0.04,9.18,-0.04,0.02,-0.01,22.84
17281962.0,0.3,-0.01,9.1,-0.04,0.03,-0.01,22.84
17304962.0,0.31,-0.09,9.17,-0.04,0.03,-0.01,22.79
17327962.0,0.27,-0.06,9.24,-0.04,0.02,-0.01,22.79
17350962.0,0.26,-0.01,9.1,-0.04,0.02,-0.01,22.79
17373962.0,0.29,-0.05,9.18,-0.04,0.03,-0.01,22.79
17396962.0,0.27,0.02,9.22,-0.04,0.03,-0.01,22.74
17419962.0,0.28,-0.04,9.22,-0.04,0.02,-0.01,22.84
17442962.0,0.29,-0.1,9.21,-0.04,0.03,-0.01,22.84
17465962.0,0.3,-0.04,9.2,-0.04,0.02,-0.01,22.74
17488962.0,0.25,-0.06,9.21,-0.04,0.02,-0.01,22.69
17511962.0,0.32,-0.04,9.23,-0.04,0.03,-0.01,22.79
17534962.0,0.22,-0.06,9.13,-0.04,0.03,-0.01,22.69
17557962.0,0.25,-0.11,9.15,-0.04,0.03,-0.01,22.79
17580962.0,0.24,-0.02,9.26,-0.04,0.03,-0.01,22.65
17603962.0,0.3,-0.07,9.09,-0.04,0.03,-0.01,22.74
17626962.0,0.27,-0.06,9.23,-0.04,0.03,-0.01,22.74
17649962.0,0.23,-0.06,9.14,-0.04,0.02,-0.01,22.74
17672962.0,0.32,-0.04,9.15,-0.04,0.02,-0.01,22.79
17695962.0,0.19,-0.05,9.19,-0.04,0.03,-0.01,22.88
17718962.0,0.23,-0.07,9.23,-0.04,0.03,-0.01,22.79
17741962.0,0.27,-0.03,9.22,-0.04,0.02,-0.01,22.79
17764962.0,0.23,-0.08,9.18,-0.04,0.02,-0.01,22.74
17787962.0,0.29,-0.06,9.27,-0.04,0.03,-0.01,22.84
17810962.0,0.28,-0.03,9.2,-0.04,0.03,-0.01,22.74
17833962.0,0.24,-0.06,9.16,-0.04,0.02,-0.01,22.74
17856962.0,0.29,-0.0,9.2,-0.04,0.02,-0.01,22.79
17879962.0,0.26,-0.08,9.13,-0.04,0.03,-0.01,22.88
17902962.0,0.3,-0.04,9.16,-0.04,0.03,-0.01,22.69
17925962.0,0.23,-0.02,9.17,-0.05,0.02,-0.01,22.79
17948962.0,0.29,-0.01,9.17,-0.05,0.02,-0.01,22.79
17971962.0,0.29,-0.02,9.19,-0.04,0.03,-0.01,22.79
17994962.0,0.28,-0.07,9.21,-0.04,0.02,-0.01,22.74
18017962.0,0.29,-0.05,9.11,-0.04,0.02,-0.01,22.74
18040962.0,0.25,-0.03,9.14,-0.04,0.03,-0.01,22.79
18063962.0,0.25,-0.06,9.19,-0.05,0.03,-0.01,22.79
18086962.0,0.24,-0.11,9.14,-0.04,0.03,-0.01,22.79
18109962.0,0.27,-0.08,9.18,-0.04,0.02,-0.01,22.69
18132962.0,0.3,-0.09,9.2,-0.04,0.02,-0.01,22.74
18155962.0,0.27,-0.01,9.22,-0.05,0.03,-0.01,22.84
18178962.0,0.25,-0.08,9.23,-0.04,0.02,-0.01,22.74
18201962.0,0.29,-0.07,9.15,-0.04,0.03,-0.01,22.74
18224962.0,0.29,-0.02,9.16,-0.04,0.03,-0.01,22.79
18247962.0,0.28,-0.03,9.2,-0.04,0.02,-0.01,22.69
18270962.0,0.29,-0.02,9.06,-0.04,0.02,-0.01,22.79
18293962.0,0.25,-0.03,9.16,-0.04,0.03,-0.01,22.79
18316962.0,0.24,-0.05,9.27,-0.04,0.03,-0.01,22.84
18339962.0,0.25,-0.0,9.19,-0.04,0.03,-0.01,22.84
18362962.0,0.24,0.0,9.23,-0.04,0.02,-0.01,22.74
18385962.0,0.21,-0.05,9.2,-0.04,0.02,-0.01,22.93
18408962.0,0.26,-0.04,9.17,-0.04,0.02,-0.01,22.79
18431962.0,0.26,-0.03,9.23,-0.04,0.02,-0.01,22.88
18454962.0,0.32,-0.06,9.15,-0.04,0.02,-0.01,22.88
18477962.0,0.23,-0.09,9.2,-0.04,0.03,-0.01,22.88
18500962.0,0.24,0.02,9.23,-0.04,0.02,-0.01,22.74
18523962.0,0.28,-0.03,9.17,-0.04,0.02,-0.01,22.74
18546962.0,0.25,-0.02,9.17,-0.04,0.02,-0.01,22.84
18569962.0,0.3,-0.05,9.28,-0.04,0.02,-0.01,22.84
18592962.0,0.23,-0.04,9.17,-0.04,0.02,-0.01,22.79
18615962.0,0.23,-0.05,9.22,-0.04,0.02,-0.01,22.79
18638962.0,0.31,-0.01,9.1,-0.04,0.02,-0.01,22.79
18661962.0,0.27,-0.06,9.23,-0.04,0.02,-0.01,22.79
18684962.0,0.28,-0.01,9.19,-0.05,0.02,-0.01,22.79
18707962.0,0.23,-0.06,9.15,-0.04,0.03,-0.01,22.79
18730962.0,0.34,-0.05,9.21,-0.04,0.02,-0.01,22.74
18753962.0,0.23,-0.07,9.11,-0.04,0.03,-0.01,22.74
18776962.0,0.25,-0.07,9.19,-0.04,0.03,-0.01,22.79
18799962.0,0.25,-0.02,9.12,-0.04,0.02,-0.01,22.79
18822962.0,0.31,-0.09,9.2,-0.05,0.02,-0.01,22.79
18845962.0,0.29,-0.08,9.17,-0.04,0.03,-0.01,22.79
18868962.0,0.24,-0.01,9.19,-0.04,0.02,-0.01,22.84
18891962.0,0.29,-0.06,9.15,-0.04,0.03,-0.01,22.74
18914962.0,0.25,-0.02,9.22,-0.04,0.02,-0.01,22.84
18937962.0,0.2,-0.03,9.22,-0.04,0.03,-0.01,22.84
18960962.0,0.2,-0.06,9.18,-0.04,0.02,-0.01,22.79
18983962.0,0.28,0.0,9.13,-0.04,0.02,-0.01,22.69
19006962.0,0.25,-0.08,9.19,-0.04,0.03,-0.01,22.79
19029962.0,0.27,-0.04,9.2,-0.04,0.02,-0.01,22.79
19052962.0,0.27,-0.04,9.19,-0.04,0.02,-0.01,22.74
19075962.0,0.26,-0.02,9.18,-0.05,0.02,-0.01,22.74
19098962.0,0.31,-0.07,9.19,-0.04,0.02,-0.01,22.74
19121962.0,0.28,-0.02,9.17,-0.04,0.02,-0.01,22.84
19144962.0,0.26,-0.06,9.2,-0.04,0.02,-0.01,22.79
19167962.0,0.23,-0.08,9.22,-0.04,0.02,-0.01,22.88
19190962.0,0.27,-0.04,9.21,-0.04,0.02,-0.01,22.79
19213962.0,0.28,-0.06,9.23,-0.04,0.02,-0.01,22.79
19236962.0,0.26,-0.05,9.19,-0.05,0.03,-0.01,22.93
19259962.0,0.29,-0.07,9.19,-0.04,0.03,-0.01,22.84
19282962.0,0.31,-0.04,9.15,-0.04,0.02,-0.01,22.93
19305962.0,0.26,-0.0,9.17,-0.04,0.02,-0.01,22.74
19328962.0,0.28,-0.03,9.19,-0.04,0.03,-0.01,22.88
19351962.0,0.29,-0.02,9.32,-0.04,0.02,-0.01,22.79
19374962.0,0.3,-0.03,9.24,-0.05,0.03,-0.01,22.79
19397962.0,0.2,0.02,9.28,-0.04,0.03,-0.01,22.79
19420962.0,0.28,-0.01,9.15,-0.05,0.03,-0.01,22.88
19443962.0,0.28,-0.07,9.24,-0.04,0.02,-0.01,22.88
19466962.0,0.27,-0.09,9.23,-0.04,0.03,-0.01,22.84
19489962.0,0.28,-0.04,9.17,-0.04,0.02,-0.01,22.74
19512962.0,0.28,-0.09,9.24,-0.05,0.02,-0.01,22.79
19535962.0,0.24,-0.02,9.17,-0.05,0.03,-0.01,22.69
19558962.0,0.29,-0.03,9.17,-0.04,0.03,-0.01,22.88
19581962.0,0.23,-0.04,9.2,-0.04,0.03,-0.01,22.79
19604962.0,0.28,-0.08,9.22,-0.04,0.02,-0.01,22.84
19627962.0,0.21,-0.01,9.15,-0.04,0.03,-0.01,22.74
19650962.0,0.26,-0.03,9.2,-0.04,0.02,-0.01,22.84
19673962.0,0.25,-0.08,9.18,-0.04,0.02,-0.01,22.84
19696962.0,0.32,-0.01,9.22,-0.04,0.03,-0.01,22.88
19719962.0,0.29,-0.08,9.09,-0.04,0.03,-0.01,22.79
19742962.0,0.27,-0.04,9.19,-0.04,0.02,-0.01,22.79
19765962.0,0.26,-0.05,9.18,-0.04,0.03,-0.01,22.88
19788962.0,0.28,-0.04,9.2,-0.04,0.03,-0.01,22.74
19811962.0,0.26,-0.05,9.22,-0.04,0.03,-0.01,22.74
19834962.0,0.29,-0.02,9.16,-0.04,0.03,-0.01,22.84
19857962.0,0.31,-0.09,9.24,-0.04,0.03,-0.01,22.84
19880962.0,0.24,0.0,9.18,-0.04,0.03,-0.01,22.79
19903962.0,0.27,-0.06,9.19,-0.04,0.03,-0.01,22.88
19926962.0,0.25,-0.06,9.19,-0.04,0.02,-0.01,22.88
19949962.0,0.33,-0.04,9.15,-0.04,0.02,-0.01,22.88
19972962.0,0.23,-0.02,9.2,-0.04,0.02,-0.01,22.74
19995962.0,0.27,-0.05,9.17,-0.04,0.02,-0.01,22.74
20018962.0,0.27,-0.01,9.18,-0.04,0.03,-0.01,22.84
20041962.0,0.25,-0.03,9.15,-0.04,0.02,-0.01,22.84
20064962.0,0.31,-0.08,9.16,-0.04,0.02,-0.01,22.79
20087962.0,0.27,-0.03,9.23,-0.04,0.02,-0.01,22.88
20110962.0,0.27,0.0,9.25,-0.04,0.03,-0.01,22.88
20133962.0,0.28,-0.01,9.18,-0.04,0.03,-0.01,22.79
20156962.0,0.22,-0.03,9.24,-0.04,0.03,-0.01,22.88
20179962.0,0.26,-0.09,9.18,-0.04,0.02,-0.01,22.79
20202962.0,0.34,-0.03,9.22,-0.04,0.03,-0.01,22.84
20225962.0,0.33,-0.01,9.17,-0.04,0.03,-0.01,22.84
20248962.0,0.25,-0.05,9.18,-0.04,0.03,-0.01,22.88
20271962.0,0.24,-0.04,9.17,-0.04,0.03,-0.01,22.88
20294962.0,0.27,0.01,9.23,-0.04,0.03,-0.01,22.79
20317962.0,0.28,-0.09,9.17,-0.04,0.03,-0.01,22.88
20340962.0,0.22,0.02,9.12,-0.04,0.03,-0.01,22.84
20363962.0,0.26,-0.06,9.22,-0.04,0.03,-0.01,22.84
20386962.0,0.25,-0.08,9.16,-0.04,0.02,-0.01,22.93
20409962.0,0.29,-0.09,9.17,-0.04,0.03,-0.01,22.84
20432962.0,0.32,-0.02,9.21,-0.04,0.02,-0.01,22.88
20455962.0,0.24,-0.03,9.16,-0.04,0.02,-0.01,22.69
20478962.0,0.25,-0.03,9.19,-0.04,0.03,-0.01,22.88
20501962.0,0.26,-0.04,9.2,-0.04,0.02,-0.01,22.88
20524962.0,0.25,-0.05,9.2,-0.04,0.02,-0.01,22.84
20547962.0,0.34,-0.03,9.19,-0.04,0.02,-0.01,22.74
20570962.0,0.29,-0.05,9.17,-0.05,0.02,-0.01,22.84
20593962.0,0.3,-0.05,9.14,-0.04,0.02,-0.01,22.84
20616962.0,0.26,-0.02,9.19,-0.04,0.02,-0.01,22.79
20639962.0,0.29,-0.07,9.26,-0.04,0.02,-0.01,22.79
20662962.0,0.22,-0.05,9.16,-0.04,0.03,-0.01,22.88
20685962.0,0.26,-0.12,9.24,-0.04,0.03,-0.01,22.79
20708962.0,0.24,-0.03,9.23,-0.05,0.03,-0.01,22.84
20731962.0,0.23,0.06,9.1,-0.04,0.03,-0.01,22.74
20754962.0,0.27,-0.03,9.12,-0.04,0.03,-0.01,22.84
20777962.0,0.26,-0.02,9.25,-0.04,0.02,-0.01,22.84
20800962.0,0.24,-0.06,9.17,-0.04,0.02,-0.01,22.79
20823962.0,0.25,-0.02,9.22,-0.04,0.02,-0.01,22.88
20846962.0,0.25,0.01,9.31,-0.04,0.02,-0.01,22.88
20869962.0,0.25,-0.03,9.15,-0.04,0.03,-0.01,22.79
20892962.0,0.24,0.0,9.15,-0.04,0.03,-0.01,22.79
20915962.0,0.29,-0.07,9.19,-0.05,0.02,-0.01,22.88
20938962.0,0.27,-0.03,9.2,-0.04,0.02,-0.01,22.84
20961962.0,0.34,-0.03,9.22,-0.04,0.03,-0.01,22.84
20984962.0,0.27,-0.02,9.19,-0.04,0.02,-0.01,22.79
21007962.0,0.29,-0.09,9.2,-0.04,0.02,-0.01,22.79
21030962.0,0.29,0.04,9.29,-0.05,0.03,-0.01,22.88
21053962.0,0.28,0.01,9.24,-0.04,0.03,-0.01,22.79
21076962.0,0.23,0.01,9.11,-0.04,0.02,-0.01,22.84
21099962.0,0.23,-0.09,9.24,-0.04,0.02,-0.01,22.74
21122962.0,0.24,-0.04,9.22,-0.04,0.02,-0.01,22.84
21145962.0,0.28,0.01,9.17,-0.04,0.02,-0.01,22.84
21168962.0,0.26,-0.01,9.15,-0.04,0.03,-0.01,22.79
21191962.0,0.24,-0.06,9.25,-0.04,0.02,-0.01,22.79
21214962.0,0.25,-0.11,9.16,-0.04,0.02,-0.01,22.79
21237962.0,0.23,-0.02,9.24,-0.04,0.02,-0.01,22.79
21260962.0,0.24,-0.06,9.21,-0.04,0.02,-0.01,22.84
21283962.0,0.33,-0.06,9.22,-0.04,0.02,-0.01,22.84
21306962.0,0.33,-0.03,9.18,-0.05,0.02,-0.01,22.84
21329962.0,0.27,-0.1,9.22,-0.04,0.03,-0.01,22.74
21352962.0,0.27,-0.08,9.17,-0.04,0.02,-0.01,22.79
21375962.0,0.28,-0.06,9.16,-0.05,0.02,-0.01,22.79
21398962.0,0.23,-0.1,9.15,-0.04,0.02,-0.01,22.79
21421962.0,0.27,-0.02,9.28,-0.04,0.03,-0.01,22.79
21444962.0,0.27,-0.07,9.21,-0.04,0.03,-0.01,22.84
21467962.0,0.25,-0.03,9.16,-0.04,0.02,-0.01,22.74
21490962.0,0.27,0.01,9.16,-0.04,0.02,-0.01,22.84
21513962.0,0.27,-0.04,9.24,-0.04,0.03,-0.01,22.93
21536962.0,0.34,0.01,9.18,-0.04,0.03,-0.01,22.79
21559962.0,0.29,0.0,9.17,-0.04,0.03,-0.01,22.88
21582962.0,0.22,-0.02,9.11,-0.04,0.02,-0.01,22.79
21605962.0,0.25,-0.06,9.17,-0.04,0.02,-0.01,22.79
21628962.0,0.28,-0.09,9.19,-0.04,0.02,-0.01,22.88
21651962.0,0.28,-0.01,9.27,-0.04,0.02,-0.01,22.88
21674962.0,0.29,0.0,9.17,-0.04,0.02,-0.01,22.93
21697962.0,0.25,-0.01,9.18,-0.04,0.03,-0.01,22.84
21720962.0,0.29,-0.02,9.18,-0.04,0.03,-0.01,22.79
21743962.0,0.27,-0.05,9.18,-0.04,0.02,-0.01,22.88
21766962.0,0.27,-0.03,9.18,-0.04,0.03,-0.01,22.88
21789962.0,0.23,-0.03,9.09,-0.04,0.03,-0.01,22.79
21812962.0,0.24,-0.03,9.23,-0.04,0.02,-0.01,22.74
21835962.0,0.28,0.0,9.17,-0.04,0.03,-0.01,22.84
21858962.0,0.27,0.0,9.19,-0.04,0.03,-0.01,22.93
21881962.0,0.27,0.02,9.22,-0.04,0.03,-0.01,22.84
21904962.0,0.22,-0.05,9.15,-0.04,0.03,-0.01,22.79
21927962.0,0.24,-0.05,9.25,-0.04,0.02,-0.01,22.88
21950962.0,0.26,0.0,9.17,-0.04,0.03,-0.01,22.79
21973962.0,0.3,-0.0,9.19,-0.04,0.03,-0.01,22.69
21996962.0,0.28,-0.07,9.12,-0.04,0.03,-0.01,22.93
22019962.0,0.28,-0.04,9.2,-0.04,0.03,-0.01,22.84
22042962.0,0.25,-0.04,9.19,-0.04,0.02,-0.01,22.74
22065962.0,0.25,-0.04,9.15,-0.04,0.03,-0.01,22.84
22088962.0,0.27,0.01,9.15,-0.04,0.02,-0.01,22.79
22111962.0,0.3,-0.04,9.11,-0.05,0.02,-0.01,22.79
22134962.0,0.24,-0.07,9.22,-0.04,0.03,-0.01,22.88
22157962.0,0.28,-0.06,9.21,-0.04,0.03,-0.01,22.69
22180962.0,0.28,-0.1,9.16,-0.04,0.02,-0.01,22.74
22203962.0,0.3,-0.07,9.17,-0.05,0.02,-0.01,22.84
22226962.0,0.25,-0.01,9.21,-0.05,0.02,-0.01,22.84
22249962.0,0.28,-0.06,9.12,-0.04,0.02,-0.01,22.84
22272962.0,0.28,-0.11,9.24,-0.04,0.02,-0.01,22.88
22295962.0,0.24,-0.05,9.26,-0.04,0.03,-0.01,22.88
22318962.0,0.25,-0.12,9.2,-0.04,0.03,-0.01,22.88
22341962.0,0.32,-0.02,9.3,-0.04,0.03,-0.01,22.88
22364962.0,0.25,-0.06,9.16,-0.04,0.02,-0.01,22.98
22387962.0,0.21,0.02,9.18,-0.04,0.03,-0.01,22.84
22410962.0,0.29,-0.1,9.27,-0.04,0.02,-0.01,22.93
22433962.0,0.23,-0.08,9.21,-0.04,0.02,-0.01,22.84
22456962.0,0.26,-0.05,9.17,-0.05,0.02,-0.01,22.79
22479962.0,0.25,-0.1,9.23,-0.04,0.03,-0.01,22.88
22502962.0,0.23,-0.07,9.16,-0.04,0.02,-0.01,22.79
22525962.0,0.31,-0.02,9.2,-0.04,0.02,-0.01,22.88
22548962.0,0.3,-0.06,9.18,-0.04,0.03,-0.01,22.84
22571962.0,0.28,-0.0,9.22,-0.04,0.03,-0.01,22.84
22594962.0,0.31,0.02,9.22,-0.05,0.03,-0.01,22.84
22617962.0,0.27,-0.03,9.28,-0.04,0.02,-0.01,22.93
22640962.0,0.29,-0.06,9.22,-0.04,0.03,-0.01,22.79
22663962.0,0.25,-0.0,9.23,-0.04,0.02,-0.01,22.88
22686962.0,0.28,-0.04,9.13,-0.04,0.02,-0.01,22.88
22709962.0,0.35,-0.03,9.21,-0.04,0.02,-0.01,22.88
22732962.0,0.27,-0.06,9.14,-0.04,0.03,-0.01,22.84
22755962.0,0.26,-0.05,9.13,-0.04,0.02,-0.01,22.84
22778962.0,0.24,-0.02,9.16,-0.04,0.02,-0.01,22.84
22801962.0,0.26,-0.05,9.18,-0.04,0.03,-0.01,22.84
22824962.0,0.23,-0.07,9.28,-0.04,0.03,-0.01,22.98
22847962.0,0.25,-0.04,9.19,-0.04,0.03,-0.01,22.88
22870962.0,0.27,-0.08,9.22,-0.04,0.03,-0.01,22.79
22893962.0,0.27,-0.07,9.16,-0.04,0.02,-0.01,22.79
22916962.0,0.25,-0.01,9.18,-0.04,0.02,-0.01,22.93
22939962.0,0.27,-0.06,9.18,-0.04,0.02,-0.01,22.84
22962962.0,0.27,-0.03,9.17,-0.04,0.03,-0.01,22.84
22985962.0,0.27,-0.04,9.17,-0.04,0.02,-0.01,22.93
23008962.0,0.21,0.0,9.22,-0.04,0.03,-0.01,22.88
23031962.0,0.25,-0.05,9.18,-0.04,0.02,-0.01,22.88
23054962.0,0.32,-0.07,9.14,-0.04,0.03,-0.01,22.79
23077962.0,0.3,-0.06,9.17,-0.04,0.03,-0.01,22.79
23100962.0,0.35,-0.05,9.17,-0.04,0.03,-0.01,22.79
23123962.0,0.33,-0.03,9.22,-0.04,0.03,-0.01,22.84
23146962.0,0.29,-0.06,9.23,-0.04,0.02,-0.01,22.84
23169962.0,0.27,-0.03,9.2,-0.04,0.03,-0.01,22.74
23192962.0,0.28,-0.05,9.22,-0.04,0.02,-0.01,22.88
23215962.0,0.25,-0.04,9.17,-0.04,0.03,-0.01,22.88
23238962.0,0.18,-0.05,9.14,-0.04,0.03,-0.01,22.88
23261962.0,0.28,0.03,9.26,-0.04,0.02,-0.01,22.88
23284962.0,0.21,0.0,9.07,-0.05,0.02,-0.01,22.84
23307962.0,0.28,-0.06,9.09,-0.04,0.03,-0.01,22.93
23330962.0,0.25,-0.11,9.17,-0.04,0.03,-0.01,22.84
23353962.0,0.25,-0.02,9.22,-0.05,0.02,-0.01,22.74
23376962.0,0.31,-0.04,9.22,-0.04,0.03,-0.01,22.79
23399962.0,0.27,-0.05,9.19,-0.04,0.02,-0.01,22.88
23422962.0,0.19,-0.04,9.25,-0.04,0.03,-0.01,22.79
23445962.0,0.28,-0.04,9.21,-0.04,0.02,-0.01,22.88
23468962.0,0.23,-0.02,9.21,-0.04,0.02,-0.01,22.84
23491962.0,0.26,-0.08,9.23,-0.04,0.02,-0.01,22.84
23514962.0,0.24,-0.05,9.12,-0.04,0.02,-0.01,22.93
23537962.0,0.28,-0.05,9.23,-0.04,0.03,-0.01,22.84
23560962.0,0.22,-0.03,9.23,-0.05,0.02,-0.01,22.88
23583962.0,0.27,-0.09,9.19,-0.04,0.03,-0.01,22.79
23606962.0,0.29,-0.03,9.22,-0.04,0.03,-0.01,22.98
23629962.0,0.24,-0.04,9.19,-0.04,0.03,-0.01,22.98
23652962.0,0.25,-0.0,9.11,-0.04,0.03,-0.01,22.84
23675962.0,0.24,-0.07,9.24,-0.04,0.03,-0.01,22.93
23698962.0,0.31,-0.1,9.09,-0.04,0.03,-0.01,22.84
23721962.0,0.28,-0.04,9.18,-0.04,0.02,-0.01,22.84
23744962.0,0.28,-0.07,9.18,-0.04,0.02,-0.01,22.88
23767962.0,0.22,-0.08,9.21,-0.04,0.02,-0.01,22.88
23790962.0,0.3,-0.01,9.21,-0.05,0.02,-0.01,22.88
23813962.0,0.25,-0.05,9.15,-0.04,0.02,-0.01,22.88
23836962.0,0.23,0.01,9.1,-0.04,0.03,-0.01,22.98
23859962.0,0.3,-0.03,9.22,-0.04,0.02,-0.01,22.74
23882962.0,0.26,-0.01,9.08,-0.04,0.02,-0.01,22.84
23905962.0,0.32,-0.11,9.15,-0.04,0.03,-0.01,22.84
23928962.0,0.27,-0.02,9.23,-0.05,0.02,-0.01,22.79
23951962.0,0.25,-0.06,9.22,-0.04,0.03,-0.01,22.79
23974962.0,0.24,0.01,9.24,-0.04,0.02,-0.01,22.79
23997962.0,0.33,-0.05,9.17,-0.04,0.03,-0.01,22.88
24020962.0,0.2,0.0,9.15,-0.04,0.02,-0.01,22.93
24043962.0,0.29,-0.03,9.26,-0.04,0.03,-0.01,22.84
24066962.0,0.31,0.01,9.16,-0.04,0.02,-0.01,22.74
24089962.0,0.32,0.0,9.26,-0.04,0.03,-0.01,22.93
24112962.0,0.24,-0.06,9.21,-0.04,0.03,-0.01,22.88
24135962.0,0.28,-0.07,9.25,-0.04,0.02,-0.01,22.88
24158962.0,0.22,-0.01,9.18,-0.04,0.03,-0.01,22.88
24181962.0,0.26,-0.03,9.26,-0.04,0.02,-0.01,22.88
24204962.0,0.28,-0.08,9.16,-0.04,0.03,-0.01,22.84
24227962.0,0.34,-0.1,9.15,-0.04,0.03,-0.01,22.93
24250962.0,0.3,-0.02,9.25,-0.04,0.02,-0.01,22.93
24273962.0,0.24,-0.02,9.21,-0.04,0.02,-0.01,22.84
24296962.0,0.32,-0.06,9.17,-0.05,0.03,-0.01,22.88
24319962.0,0.23,-0.05,9.27,-0.04,0.02,-0.01,22.88
24342962.0,0.28,0.0,9.17,-0.04,0.03,-0.01,22.79
24365962.0,0.26,-0.03,9.13,-0.05,0.03,-0.01,22.88
24388962.0,0.2,-0.06,9.25,-0.04,0.03,-0.01,22.84
24411962.0,0.29,-0.07,9.19,-0.04,0.02,-0.01,22.84
24434962.0,0.25,-0.05,9.15,-0.04,0.03,-0.01,22.84
24457962.0,0.26,-0.08,9.12,-0.04,0.03,-0.01,22.84
24480962.0,0.22,-0.06,9.17,-0.04,0.02,-0.01,22.79
24503962.0,0.27,-0.04,9.21,-0.04,0.02,-0.01,22.98
24526962.0,0.27,-0.01,9.21,-0.04,0.02,-0.01,22.88
24549962.0,0.32,-0.11,9.16,-0.04,0.03,-0.01,22.88
24572962.0,0.24,0.0,9.3,-0.04,0.03,-0.01,22.98
24595962.0,0.31,-0.02,9.15,-0.04,0.02,-0.01,22.84
24618962.0,0.23,-0.04,9.18,-0.04,0.03,-0.01,22.93
24641962.0,0.26,-0.06,9.2,-0.04,0.03,-0.01,22.84
24664962.0,0.31,-0.04,9.27,-0.04,0.03,-0.01,22.88
24687962.0,0.28,-0.07,9.22,-0.04,0.03,-0.01,22.88
24710962.0,0.27,-0.09,9.13,-0.04,0.02,-0.01,22.88
24733962.0,0.29,-0.07,9.19,-0.04,0.02,-0.01,22.88
24756962.0,0.31,-0.06,9.22,-0.04,0.03,-0.01,22.84
24779962.0,0.27,-0.1,9.17,-0.04,0.02,-0.01,22.84
24802962.0,0.3,-0.04,9.26,-0.04,0.02,-0.01,22.84
24825962.0,0.3,-0.05,9.22,-0.04,0.02,-0.01,22.84
24848962.0,0.28,-0.01,9.17,-0.04,0.02,-0.01,22.98
24871962.0,0.24,-0.09,9.15,-0.04,0.03,-0.01,22.88
24894962.0,0.25,-0.04,9.15,-0.04,0.03,-0.01,22.88
24917962.0,0.29,-0.03,9.17,-0.04,0.03,-0.01,22.88
24940962.0,0.27,-0.11,9.16,-0.04,0.03,-0.01,22.93
24963962.0,0.22,-0.03,9.18,-0.04,0.03,-0.01,22.84
24986962.0,0.24,-0.04,9.23,-0.04,0.02,-0.01,22.93
25009962.0,0.25,-0.04,9.22,-0.04,0.02,-0.01,22.93
25032962.0,0.3,-0.06,9.22,-0.05,0.02,-0.01,22.88
25055962.0,0.24,-0.04,9.19,-0.04,0.03,-0.01,22.88
25078962.0,0.29,-0.06,9.18,-0.04,0.03,-0.01,22.88
25101962.0,0.27,-0.04,9.25,-0.04,0.03,-0.01,22.79
25124962.0,0.27,-0.08,9.13,-0.04,0.02,-0.01,22.84
25147962.0,0.23,-0.03,9.26,-0.04,0.02,-0.01,22.84
25170962.0,0.27,-0.0,9.16,-0.04,0.03,-0.01,22.84
25193962.0,0.32,-0.02,9.19,-0.04,0.03,-0.01,22.84
25216962.0,0.27,-0.03,9.2,-0.04,0.03,-0.01,22.88
25239962.0,0.28,-0.09,9.22,-0.04,0.03,-0.01,22.88
25262962.0,0.29,-0.09,9.16,-0.04,0.02,-0.01,22.88
25285962.0,0.25,-0.06,9.22,-0.04,0.02,-0.01,22.79
25308962.0,0.3,-0.07,9.11,-0.04,0.03,-0.01,22.79
25331962.0,0.31,-0.05,9.23,-0.04,0.03,-0.01,22.93
25354962.0,0.25,-0.06,9.22,-0.04,0.03,-0.01,22.84
25377962.0,0.26,0.0,9.1,-0.04,0.03,-0.01,22.84
25400962.0,0.28,-0.02,9.2,-0.04,0.02,-0.01,22.88
25423962.0,0.33,-0.04,9.15,-0.04,0.02,-0.01,22.88
25446962.0,0.25,-0.06,9.17,-0.04,0.03,-0.01,22.79
25469962.0,0.28,-0.01,9.16,-0.04,0.02,-0.01,22.88
25492962.0,0.26,-0.06,9.22,-0.04,0.02,-0.01,22.93
25515962.0,0.22,-0.04,9.21,-0.04,0.03,-0.01,22.84
25538962.0,0.28,-0.07,9.21,-0.04,0.02,-0.01,22.93
25561962.0,0.31,-0.06,9.08,-0.04,0.02,-0.01,22.93
25584962.0,0.28,-0.06,9.21,-0.04,0.02,-0.01,22.88
25607962.0,0.26,-0.04,9.22,-0.04,0.02,-0.01,22.88
25630962.0,0.28,-0.02,9.28,-0.04,0.02,-0.01,22.88
25653962.0,0.35,-0.08,9.17,-0.04,0.02,-0.01,22.88
25676962.0,0.33,-0.01,9.23,-0.04,0.02,-0.01,22.93
25699962.0,0.32,-0.1,9.09,-0.04,0.02,-0.01,22.84
25722962.0,0.3,0.02,9.21,-0.04,0.03,-0.01,22.84
25745962.0,0.29,-0.09,9.17,-0.04,0.03,-0.01,22.84
25768962.0,0.27,-0.11,9.19,-0.04,0.03,-0.01,22.88
25791962.0,0.21,-0.02,9.19,-0.04,0.02,-0.01,22.88
25814962.0,0.25,-0.01,9.23,-0.04,0.03,-0.01,22.79
25837962.0,0.23,0.01,9.19,-0.04,0.02,-0.01,22.88
25860962.0,0.3,0.0,9.16,-0.04,0.03,-0.01,22.84
25883962.0,0.25,-0.05,9.19,-0.04,0.02,-0.01,22.84
25906962.0,0.31,-0.05,9.21,-0.04,0.02,-0.01,22.84
25929962.0,0.23,0.02,9.24,-0.04,0.02,-0.01,22.84
25952962.0,0.28,0.05,9.2,-0.04,0.02,-0.01,22.79
25975962.0,0.26,0.0,9.17,-0.04,0.03,-0.01,22.88
25998962.0,0.32,-0.1,9.22,-0.04,0.02,-0.01,22.79
26021962.0,0.25,-0.03,9.22,-0.04,0.02,-0.01,22.79
26044962.0,0.28,-0.05,9.08,-0.04,0.03,-0.01,22.79
26067962.0,0.32,-0.05,9.18,-0.04,0.02,-0.01,22.74
26090962.0,0.23,-0.06,9.2,-0.04,0.03,-0.01,22.93
26113962.0,0.29,0.03,9.22,-0.04,0.03,-0.01,22.93
26136962.0,0.23,-0.06,9.24,-0.04,0.03,-0.01,22.88
26159962.0,0.25,-0.0,9.23,-0.04,0.02,-0.01,22.88
26182962.0,0.25,-0.06,9.18,-0.04,0.02,-0.01,22.88
26205962.0,0.25,-0.06,9.24,-0.04,0.03,-0.01,22.88
26228962.0,0.25,-0.09,9.25,-0.04,0.03,-0.01,22.84
26251962.0,0.27,-0.03,9.16,-0.04,0.03,-0.01,22.93
26274962.0,0.27,0.0,9.17,-0.04,0.02,-0.01,22.93
26297962.0,0.25,0.01,9.21,-0.04,0.02,-0.01,22.84
26320962.0,0.24,-0.03,9.24,-0.04,0.03,-0.01,22.88
26343962.0,0.25,-0.05,9.17,-0.04,0.02,-0.01,22.88
26366962.0,0.25,-0.03,9.18,-0.04,0.02,-0.01,22.98
26389962.0,0.27,-0.07,9.19,-0.05,0.03,-0.01,22.88
26412962.0,0.32,-0.02,9.12,-0.04,0.02,-0.01,22.84
26435962.0,0.27,-0.02,9.17,-0.04,0.02,-0.01,22.84
26458962.0,0.26,-0.0,9.23,-0.04,0.02,-0.01,22.84
26481962.0,0.24,-0.01,9.26,-0.04,0.02,-0.01,22.93
26504962.0,0.25,-0.02,9.24,-0.04,0.03,-0.01,22.88
26527962.0,0.27,-0.04,9.25,-0.04,0.02,-0.01,22.88
26550962.0,0.3,-0.01,9.19,-0.04,0.03,-0.01,22.88
26573962.0,0.27,-0.03,9.2,-0.05,0.03,-0.01,22.79
26596962.0,0.28,-0.04,9.18,-0.05,0.02,-0.01,22.84
26619962.0,0.28,-0.04,9.18,-0.04,0.02,-0.01,22.93
26642962.0,0.31,-0.01,9.14,-0.04,0.03,-0.01,22.84
26665962.0,0.25,0.01,9.17,-0.04,0.03,-0.01,22.93
26688962.0,0.28,-0.07,9.15,-0.04,0.02,-0.01,22.88
26711962.0,0.27,0.01,9.18,-0.04,0.02,-0.01,22.88
26734962.0,0.26,-0.02,9.11,-0.04,0.02,-0.01,22.88
26757962.0,0.23,-0.02,9.16,-0.05,0.03,-0.01,22.98
26780962.0,0.29,-0.05,9.14,-0.04,0.02,-0.01,22.79
26803962.0,0.25,-0.04,9.2,-0.04,0.02,-0.01,22.84
26826962.0,0.29,-0.06,9.18,-0.04,0.03,-0.01,22.93
26849962.0,0.28,-0.08,9.2,-0.04,0.03,-0.01,22.84
26872962.0,0.3,-0.09,9.3,-0.04,0.02,-0.01,22.88
26895962.0,0.23,-0.11,9.18,-0.04,0.03,-0.01,22.88
26918962.0,0.27,-0.03,9.2,-0.04,0.02,-0.01,22.88
26941962.0,0.29,0.03,9.18,-0.04,0.02,-0.01,22.88
26964962.0,0.21,0.01,9.18,-0.04,0.03,-0.01,22.93
26987962.0,0.28,-0.02,9.13,-0.04,0.02,-0.01,22.93
27010962.0,0.28,-0.04,9.2,-0.04,0.03,-0.01,22.93
27033962.0,0.24,-0.08,9.11,-0.04,0.02,-0.01,22.93
27056962.0,0.26,-0.02,9.23,-0.04,0.03,-0.01,22.98
27079962.0,0.28,-0.07,9.28,-0.04,0.03,-0.01,22.88
27102962.0,0.26,-0.07,9.23,-0.04,0.02,-0.01,22.88
27125962.0,0.26,-0.03,9.18,-0.04,0.03,-0.01,22.79
27148962.0,0.25,-0.02,9.19,-0.04,0.02,-0.01,22.84
27171962.0,0.28,-0.07,9.2,-0.04,0.03,-0.01,22.84
27194962.0,0.28,-0.07,9.24,-0.04,0.02,-0.01,22.93
27217962.0,0.32,-0.07,9.16,-0.04,0.03,-0.01,22.84
27240962.0,0.29,-0.03,9.2,-0.04,0.02,-0.01,22.88
27263962.0,0.25,-0.08,9.16,-0.04,0.03,-0.01,22.98
27286962.0,0.3,0.0,9.17,-0.04,0.02,-0.01,22.88
27309962.0,0.28,-0.06,9.14,-0.04,0.03,-0.01,22.79
27332962.0,0.28,-0.05,9.25,-0.04,0.03,-0.01,22.84
27355962.0,0.26,-0.03,9.19,-0.04,0.03,-0.01,22.84
27378962.0,0.32,-0.02,9.11,-0.04,0.02,-0.01,23.02
27401962.0,0.27,-0.07,9.18,-0.04,0.02,-0.01,22.93
27424962.0,0.29,-0.09,9.21,-0.04,0.02,-0.01,22.88
27447962.0,0.28,-0.05,9.21,-0.04,0.02,-0.01,22.88
27470962.0,0.28,-0.07,9.21,-0.04,0.03,-0.01,22.98
27493962.0,0.32,-0.04,9.2,-0.04,0.03,-0.01,22.98
27516962.0,0.25,0.01,9.23,-0.04,0.03,-0.01,22.88
27539962.0,0.26,-0.08,9.24,-0.04,0.02,-0.01,22.93
27562962.0,0.26,-0.05,9.2,-0.04,0.03,-0.01,22.93
27585962.0,0.29,-0.02,9.24,-0.04,0.02,-0.01,22.93
27608962.0,0.28,0.04,9.13,-0.04,0.03,-0.01,22.98
27631962.0,0.29,-0.03,9.23,-0.05,0.02,-0.01,22.88
27654962.0,0.25,-0.04,9.19,-0.04,0.03,-0.01,22.88
27677962.0,0.31,-0.07,9.16,-0.04,0.02,-0.01,22.98
27700962.0,0.33,-0.05,9.11,-0.04,0.02,-0.01,22.93
27723962.0,0.3,-0.01,9.21,-0.04,0.02,-0.01,22.84
27746962.0,0.29,-0.07,9.18,-0.04,0.03,-0.01,22.93
27769962.0,0.25,0.0,9.24,-0.04,0.03,-0.01,22.84
27792962.0,0.3,-0.03,9.19,-0.04,0.02,-0.01,22.88
27815962.0,0.25,-0.1,9.2,-0.04,0.02,-0.01,22.88
27838962.0,0.26,-0.08,9.21,-0.04,0.03,-0.01,22.88
27861962.0,0.24,-0.03,9.2,-0.04,0.03,-0.01,22.88
27884962.0,0.27,-0.04,9.21,-0.04,0.03,-0.01,22.84
27907962.0,0.25,-0.04,9.2,-0.04,0.03,-0.01,22.93
27930962.0,0.24,-0.08,9.16,-0.04,0.03,-0.01,22.93
27953962.0,0.24,0.02,9.24,-0.04,0.02,-0.01,22.93
27976962.0,0.25,-0.04,9.27,-0.04,0.02,-0.01,22.79
27999962.0,0.26,-0.09,9.15,-0.04,0.02,-0.01,22.79
28022962.0,0.18,-0.09,9.18,-0.04,0.03,-0.01,22.88
28045962.0,0.29,-0.05,9.21,-0.05,0.03,-0.01,22.79
28068962.0,0.3,-0.06,9.25,-0.04,0.02,-0.01,22.93
28091962.0,0.28,-0.0,9.17,-0.04,0.03,-0.01,22.84
28114962.0,0.3,-0.03,9.21,-0.04,0.02,-0.01,22.93
28137962.0,0.31,-0.02,9.13,-0.04,0.02,-0.01,22.84
28160962.0,0.31,-0.02,9.22,-0.04,0.02,-0.01,22.88
28183962.0,0.33,-0.05,9.21,-0.04,0.02,-0.01,22.88
28206962.0,0.28,0.0,9.19,-0.04,0.03,-0.01,22.98
28229962.0,0.27,0.02,9.19,-0.04,0.03,-0.01,22.88
28252962.0,0.23,-0.01,9.2,-0.04,0.03,-0.01,22.88
28275962.0,0.27,-0.08,9.16,-0.04,0.02,-0.01,22.84
28298962.0,0.28,-0.07,9.11,-0.05,0.03,-0.01,22.93
28321962.0,0.24,0.06,9.04,-0.04,0.02,-0.01,22.84
28344962.0,0.23,-0.08,9.0,-0.04,0.03,-0.01,22.69
28367962.0,0.28,0.04,9.05,-0.04,0.03,-0.01,22.88
28390962.0,0.27,-0.07,9.19,-0.05,0.02,-0.01,22.98
28413962.0,0.29,-0.02,9.07,-0.04,0.03,-0.01,22.88
28436962.0,0.32,0.01,9.18,-0.05,0.02,-0.01,22.93
28459962.0,0.35,-0.1,9.2,-0.04,0.03,-0.01,22.93
28482962.0,0.23,-0.01,9.2,-0.04,0.02,-0.01,22.84
28505962.0,0.25,-0.07,9.15,-0.05,0.02,-0.01,22.93
28528962.0,0.28,-0.09,9.3,-0.04,0.02,-0.01,22.88
28551962.0,0.29,-0.07,9.18,-0.04,0.03,-0.01,22.98
28574962.0,0.32,-0.02,9.23,-0.04,0.03,-0.01,22.79
28597962.0,0.31,0.02,9.19,-0.04,0.02,-0.01,22.88
28620962.0,0.28,-0.02,9.17,-0.05,0.02,-0.01,22.84
28643962.0,0.28,-0.05,9.21,-0.04,0.02,-0.01,22.93
28666962.0,0.29,-0.08,9.24,-0.04,0.02,-0.01,22.84
28689962.0,0.31,-0.01,9.14,-0.04,0.02,-0.01,23.02
28712962.0,0.24,0.04,9.21,-0.04,0.03,-0.01,22.88
28735962.0,0.28,-0.07,9.19,-0.04,0.02,-0.01,22.79
28758962.0,0.27,-0.01,9.15,-0.04,0.02,-0.01,22.88
28781962.0,0.3,0.01,9.18,-0.04,0.03,-0.01,22.88
28804962.0,0.25,-0.06,9.12,-0.04,0.02,-0.01,22.93
28827962.0,0.28,-0.02,9.24,-0.04,0.02,-0.01,22.93
28850962.0,0.26,-0.15,9.22,-0.04,0.02,-0.01,22.84
28873962.0,0.24,0.0,9.12,-0.04,0.02,-0.01,22.93
28896962.0,0.24,-0.04,9.23,-0.04,0.03,-0.01,22.79
28919962.0,0.29,-0.1,9.17,-0.04,0.02,-0.01,22.79
28942962.0,0.24,-0.04,9.12,-0.04,0.02,-0.01,22.88
28965962.0,0.28,-0.0,9.17,-0.04,0.02,-0.01,22.88
28988962.0,0.29,-0.09,9.12,-0.04,0.02,-0.01,22.88
29011962.0,0.27,0.03,9.09,-0.04,0.03,-0.01,22.93
29034962.0,0.27,-0.0,9.27,-0.04,0.03,-0.01,22.84
29057962.0,0.25,-0.06,9.14,-0.04,0.02,-0.01,22.84
29080962.0,0.23,-0.02,9.22,-0.04,0.02,-0.01,22.88
29103962.0,0.27,0.01,9.18,-0.04,0.03,-0.01,22.88
29126962.0,0.26,-0.02,9.27,-0.04,0.03,-0.01,22.98
29149962.0,0.26,0.01,9.17,-0.04,0.02,-0.01,22.98
29172962.0,0.29,-0.09,9.09,-0.04,0.03,-0.01,22.84
29195962.0,0.22,-0.08,9.23,-0.05,0.02,-0.01,22.93
29218962.0,0.26,-0.05,9.14,-0.04,0.02,-0.01,22.84
29241962.0,0.25,-0.05,9.17,-0.04,0.03,-0.01,22.93
29264962.0,0.29,-0.05,9.23,-0.04,0.02,-0.01,22.88
29287962.0,0.31,-0.03,9.24,-0.04,0.02,-0.01,22.79
29310962.0,0.25,0.0,9.21,-0.04,0.02,-0.01,22.88
29333962.0,0.27,0.01,9.28,-0.04,0.03,-0.01,22.88
29356962.0,0.28,-0.04,9.26,-0.04,0.02,-0.01,22.93
29379962.0,0.29,-0.09,9.22,-0.04,0.02,-0.01,22.93
29402962.0,0.23,-0.04,9.16,-0.04,0.02,-0.01,22.93
29425962.0,0.25,-0.08,9.18,-0.04,0.02,-0.01,22.93
29448962.0,0.3,-0.02,9.17,-0.04,0.03,-0.01,22.98
29471962.0,0.33,-0.06,9.22,-0.05,0.02,-0.01,22.88
29494962.0,0.28,-0.11,9.17,-0.04,0.02,-0.01,22.88
29517962.0,0.29,-0.06,9.18,-0.04,0.02,-0.01,22.88
29540962.0,0.29,-0.06,9.2,-0.04,0.02,-0.01,22.84
29563962.0,0.33,-0.07,9.15,-0.04,0.03,-0.01,22.84
29586962.0,0.19,-0.08,9.19,-0.04,0.03,-0.01,22.93
29609962.0,0.29,-0.01,9.17,-0.04,0.03,-0.01,22.74
29632962.0,0.26,-0.07,9.18,-0.04,0.02,-0.01,22.88
29655962.0,0.27,-0.05,9.18,-0.04,0.02,-0.01,22.88
29678962.0,0.27,-0.06,9.1,-0.04,0.02,-0.01,22.88
29701962.0,0.26,-0.04,9.28,-0.04,0.03,-0.01,22.88
29724962.0,0.27,-0.01,9.2,-0.04,0.03,-0.01,22.79
29747962.0,0.25,-0.05,9.2,-0.04,0.02,-0.01,22.84
29770962.0,0.29,-0.03,9.21,-0.04,0.02,-0.01,22.93
29793962.0,0.22,0.02,9.24,-0.04,0.02,-0.01,22.84
29816962.0,0.26,-0.03,9.24,-0.04,0.03,-0.01,22.88
29839962.0,0.24,-0.03,9.26,-0.04,0.03,-0.01,22.88
29862962.0,0.22,0.05,9.24,-0.04,0.02,-0.01,22.88
29885962.0,0.28,-0.06,9.19,-0.04,0.02,-0.01,22.88
29908962.0,0.23,-0.09,9.15,-0.04,0.02,-0.01,22.84
29931962.0,0.26,-0.05,9.14,-0.04,0.02,-0.01,22.84
29954962.0,0.24,-0.0,9.07,-0.04,0.03,-0.01,22.93
29977962.0,0.34,-0.06,9.18,-0.04,0.02,-0.01,22.93
30000962.0,0.28,-0.08,9.14,-0.04,0.02,-0.01,22.88
30023962.0,0.23,0.0,9.26,-0.04,0.03,-0.01,22.88
30046962.0,0.21,-0.09,9.16,-0.04,0.03,-0.01,22.98
30069962.0,0.24,0.01,9.19,-0.04,0.02,-0.01,22.98
30092962.0,0.18,0.01,9.15,-0.04,0.02,-0.01,22.84
30115962.0,0.27,-0.04,9.24,-0.04,0.03,-0.01,22.84
30138962.0,0.24,-0.03,9.17,-0.04,0.02,-0.01,22.84
30161962.0,0.26,-0.09,9.2,-0.04,0.03,-0.01,22.93
30184962.0,0.26,-0.03,9.19,-0.04,0.03,-0.01,22.88
30207962.0,0.26,-0.05,9.18,-0.04,0.02,-0.01,22.88
30230962.0,0.29,-0.04,9.19,-0.04,0.02,-0.01,22.98
30253962.0,0.32,-0.06,9.18,-0.04,0.02,-0.01,22.88
30276962.0,0.35,-0.1,9.22,-0.04,0.02,-0.01,22.93
30299962.0,0.27,-0.07,9.16,-0.04,0.02,-0.01,22.93
30322962.0,0.3,-0.06,9.18,-0.04,0.02,-0.01,22.93
30345962.0,0.27,-0.03,9.19,-0.04,0.02,-0.01,22.93
30368962.0,0.28,-0.02,9.19,-0.04,0.02,-0.01,22.88
30391962.0,0.24,-0.03,9.18,-0.04,0.02,-0.01,22.79
30414962.0,0.24,-0.04,9.19,-0.04,0.02,-0.01,22.88
30437962.0,0.25,-0.01,9.15,-0.04,0.03,-0.01,22.88
30460962.0,0.23,-0.06,9.24,-0.04,0.03,-0.01,22.79
30483962.0,0.3,-0.1,9.22,-0.04,0.03,-0.01,22.84
30506962.0,0.24,0.02,9.32,-0.04,0.03,-0.01,22.93
30529962.0,0.29,-0.04,9.16,-0.04,0.02,-0.01,22.93
30552962.0,0.24,-0.06,9.26,-0.04,0.02,-0.01,22.88
30575962.0,0.26,-0.03,9.16,-0.04,0.03,-0.01,22.79
30598962.0,0.29,0.01,9.19,-0.04,0.03,-0.01,22.88
30621962.0,0.27,0.02,9.29,-0.04,0.03,-0.01,22.88
30644962.0,0.2,0.01,9.21,-0.04,0.02,-0.01,22.93
30667962.0,0.27,0.0,9.09,-0.04,0.02,-0.01,22.93
30690962.0,0.31,-0.03,9.16,-0.04,0.03,-0.01,22.93
30713962.0,0.25,-0.06,9.17,-0.04,0.03,-0.01,22.84
30736962.0,0.18,-0.05,9.13,-0.04,0.03,-0.01,22.98
30759962.0,0.31,0.01,9.19,-0.04,0.02,-0.01,22.88
30782962.0,0.28,-0.04,9.2,-0.04,0.03,-0.01,22.88
30805962.0,0.27,-0.07,9.17,-0.04,0.03,-0.01,22.88
30828962.0,0.23,-0.13,9.15,-0.04,0.02,-0.01,22.93
30851962.0,0.34,0.01,9.21,-0.04,0.02,-0.01,22.93
30874962.0,0.26,-0.07,9.32,-0.04,0.03,-0.01,22.84
30897962.0,0.33,-0.06,9.23,-0.04,0.02,-0.01,22.84
30920962.0,0.3,-0.05,9.23,-0.04,0.03,-0.01,22.88
30943962.0,0.29,-0.1,9.17,-0.05,0.02,-0.01,22.88
30966962.0,0.27,-0.03,9.19,-0.04,0.03,-0.01,22.88
30989962.0,0.27,-0.06,9.03,-0.05,0.03,-0.01,22.88
31012962.0,0.25,-0.05,9.2,-0.04,0.03,-0.01,22.84
31035962.0,0.31,-0.06,9.19,-0.04,0.02,-0.01,22.84
31058962.0,0.26,-0.03,9.24,-0.04,0.03,-0.01,22.84
31081962.0,0.24,-0.06,9.15,-0.04,0.02,-0.01,22.84
31104962.0,0.29,-0.01,9.2,-0.04,0.02,-0.01,22.88
31127962.0,0.29,-0.01,9.11,-0.04,0.03,-0.01,22.88
31150962.0,0.31,-0.12,9.22,-0.05,0.03,-0.01,22.88
31173962.0,0.23,-0.09,9.21,-0.04,0.03,-0.01,22.88
31196962.0,0.3,-0.04,9.11,-0.04,0.03,-0.01,22.79
31219962.0,0.28,0.0,9.16,-0.04,0.02,-0.01,22.93
31242962.0,0.33,-0.04,9.2,-0.04,0.02,-0.01,22.93
31265962.0,0.28,-0.06,9.11,-0.04,0.03,-0.01,22.93
31288962.0,0.25,-0.05,9.2,-0.05,0.02,-0.01,22.88
31311962.0,0.25,-0.03,9.27,-0.04,0.03,-0.01,22.88
31334962.0,0.28,-0.04,9.12,-0.04,0.02,-0.01,22.88
31357962.0,0.29,-0.1,9.23,-0.04,0.02,-0.01,22.79
31380962.0,0.25,-0.07,9.24,-0.04,0.03,-0.01,22.84
31403962.0,0.25,-0.06,9.22,-0.04,0.03,-0.01,22.84
31426962.0,0.25,0.0,9.17,-0.04,0.03,-0.01,22.84
31449962.0,0.26,-0.01,9.19,-0.04,0.03,-0.01,22.84
31472962.0,0.27,-0.05,9.3,-0.05,0.02,-0.01,22.98
31495962.0,0.21,-0.03,9.18,-0.04,0.02,-0.01,22.79
31518962.0,0.3,-0.03,9.19,-0.04,0.03,-0.01,22.98
31541962.0,0.28,-0.03,9.31,-0.04,0.03,-0.01,22.88
31564962.0,0.29,0.01,9.25,-0.04,0.02,-0.01,22.93
31587962.0,0.25,-0.04,9.17,-0.04,0.03,-0.01,22.84
31610962.0,0.26,-0.05,9.18,-0.04,0.03,-0.01,22.84
31633962.0,0.29,-0.04,9.17,-0.04,0.03,-0.01,22.93
31656962.0,0.24,-0.04,9.17,-0.04,0.03,-0.01,22.98
31679962.0,0.25,-0.02,9.21,-0.04,0.03,-0.01,22.88
31702962.0,0.22,-0.06,9.16,-0.04,0.03,-0.01,22.88
31725962.0,0.27,-0.04,9.17,-0.04,0.02,-0.01,22.88
31748962.0,0.31,-0.06,9.24,-0.04,0.02,-0.01,22.84
31771962.0,0.28,-0.06,9.23,-0.04,0.02,-0.01,22.84
31794962.0,0.24,0.01,9.14,-0.04,0.03,-0.01,22.84
31817962.0,0.26,-0.04,9.3,-0.04,0.02,-0.01,22.84
31840962.0,0.25,0.0,9.22,-0.04,0.02,-0.01,22.88
31863962.0,0.32,-0.03,9.19,-0.05,0.03,-0.01,22.79
31886962.0,0.24,-0.03,9.14,-0.04,0.02,-0.01,22.98
31909962.0,0.27,-0.05,9.19,-0.04,0.03,-0.01,22.98
31932962.0,0.31,-0.05,9.23,-0.04,0.03,-0.01,22.88
31955962.0,0.26,0.01,9.23,-0.04,0.03,-0.01,22.93
31978962.0,0.29,-0.08,9.26,-0.05,0.02,-0.01,22.93
32001962.0,0.26,-0.07,9.26,-0.04,0.02,-0.01,22.84
32024962.0,0.29,-0.08,9.25,-0.04,0.02,-0.01,22.79
32047962.0,0.26,-0.07,9.16,-0.05,0.03,-0.01,22.88
32070962.0,0.28,-0.08,9.26,-0.04,0.03,-0.01,22.88
32093962.0,0.26,-0.02,9.12,-0.04,0.03,-0.01,22.88
32116962.0,0.27,-0.02,9.23,-0.04,0.02,-0.01,22.84
32139962.0,0.24,-0.03,9.21,-0.05,0.02,-0.01,22.93
32162962.0,0.25,-0.1,9.25,-0.04,0.02,-0.01,22.84
32185962.0,0.25,-0.06,9.22,-0.04,0.02,-0.01,22.84
32208962.0,0.29,-0.0,9.12,-0.04,0.02,-0.01,22.88
32231962.0,0.28,-0.03,9.17,-0.04,0.03,-0.01,22.88
32254962.0,0.32,-0.02,9.16,-0.04,0.02,-0.01,22.88
32277962.0,0.27,-0.11,9.2,-0.05,0.02,-0.01,22.98
32300962.0,0.23,0.01,9.1,-0.04,0.02,-0.01,22.84
32323962.0,0.27,-0.05,9.1,-0.04,0.03,-0.01,22.84
32346962.0,0.26,0.03,9.17,-0.05,0.02,-0.01,22.84
32369962.0,0.31,-0.01,9.14,-0.04,0.02,-0.01,22.93
32392962.0,0.25,-0.07,9.22,-0.04,0.03,-0.01,22.98
32415962.0,0.32,-0.07,9.26,-0.04,0.02,-0.01,22.98
32438962.0,0.29,-0.05,9.19,-0.04,0.02,-0.01,22.88
32461962.0,0.27,-0.06,9.14,-0.04,0.02,-0.01,22.79
32484962.0,0.24,-0.06,9.21,-0.04,0.03,-0.01,22.84
32507962.0,0.27,-0.04,9.17,-0.04,0.03,-0.01,22.93
32530962.0,0.3,-0.05,9.12,-0.04,0.03,-0.01,22.84
32553962.0,0.25,-0.09,9.19,-0.04,0.03,-0.01,22.93
32576962.0,0.21,-0.05,9.28,-0.05,0.03,-0.01,22.88
32599962.0,0.32,0.01,9.2,-0.04,0.02,-0.01,22.88
32622962.0,0.23,-0.03,9.24,-0.04,0.03,-0.01,22.98
32645962.0,0.23,-0.05,9.18,-0.04,0.02,-0.01,22.98
32668962.0,0.28,-0.15,9.14,-0.04,0.02,-0.01,22.88
32691962.0,0.26,-0.01,9.17,-0.05,0.03,-0.01,22.84
32714962.0,0.31,-0.06,9.2,-0.04,0.03,-0.01,22.93
32737962.0,0.28,-0.04,9.26,-0.04,0.03,-0.01,22.93
32760962.0,0.29,-0.04,9.26,-0.04,0.03,-0.01,22.88
32783962.0,0.25,-0.04,9.17,-0.04,0.03,-0.01,22.88
32806962.0,0.19,-0.0,9.21,-0.04,0.03,-0.01,22.98
32829962.0,0.28,-0.04,9.18,-0.04,0.02,-0.01,22.88
32852962.0,0.24,-0.05,9.23,-0.04,0.02,-0.01,22.93
32875962.0,0.23,-0.06,9.17,-0.04,0.03,-0.01,22.84
32898962.0,0.26,-0.04,9.23,-0.04,0.03,-0.01,22.93
32921962.0,0.27,-0.0,9.12,-0.04,0.03,-0.01,22.84
32944962.0,0.31,0.02,9.15,-0.04,0.02,-0.01,22.88
32967962.0,0.26,-0.06,9.26,-0.04,0.03,-0.01,22.88
32990962.0,0.24,-0.08,9.22,-0.04,0.03,-0.01,22.88
33013962.0,0.3,-0.06,9.15,-0.05,0.03,-0.01,22.88
33036962.0,0.23,-0.09,9.25,-0.04,0.03,-0.01,22.84
33059962.0,0.25,-0.01,9.28,-0.04,0.02,-0.01,22.84
33082962.0,0.33,-0.04,9.16,-0.04,0.03,-0.01,22.93
33105962.0,0.34,-0.06,9.28,-0.04,0.03,-0.01,22.93
33128962.0,0.21,-0.03,9.17,-0.04,0.03,-0.01,22.88
33151962.0,0.31,-0.01,9.19,-0.04,0.03,-0.01,22.88
33174962.0,0.32,-0.02,9.07,-0.04,0.02,-0.01,22.88
33197962.0,0.25,-0.01,9.14,-0.04,0.03,-0.01,22.98
33220962.0,0.26,0.02,9.26,-0.04,0.03,-0.01,22.93
33243962.0,0.28,-0.04,9.21,-0.04,0.03,-0.01,22.93
33266962.0,0.28,-0.03,9.12,-0.05,0.03,-0.01,22.93
33289962.0,0.31,-0.05,9.2,-0.04,0.03,-0.01,22.93
33312962.0,0.25,-0.06,9.27,-0.04,0.02,-0.01,22.88
33335962.0,0.21,-0.03,9.22,-0.04,0.02,-0.01,22.88
33358962.0,0.23,0.02,9.21,-0.04,0.02,-0.01,22.88
33381962.0,0.24,-0.06,9.19,-0.04,0.02,-0.01,22.88
33404962.0,0.27,-0.1,9.27,-0.04,0.03,-0.01,22.88
33427962.0,0.21,-0.07,9.2,-0.04,0.02,-0.01,22.93
33450962.0,0.25,-0.01,9.17,-0.04,0.03,-0.01,22.93
33473962.0,0.26,-0.05,9.2,-0.04,0.02,-0.01,22.93
33496962.0,0.28,0.02,9.16,-0.05,0.03,-0.01,22.88
33519962.0,0.27,-0.07,9.17,-0.04,0.03,-0.01,22.88
33542962.0,0.29,-0.02,9.22,-0.04,0.03,-0.01,22.88
33565962.0,0.25,-0.03,9.25,-0.05,0.03,-0.01,22.98
33588962.0,0.27,-0.04,9.28,-0.04,0.02,-0.01,22.93
33611962.0,0.28,0.03,9.26,-0.04,0.03,-0.01,22.93
33634962.0,0.29,-0.07,9.08,-0.04,0.03,-0.01,22.84
33657962.0,0.27,-0.02,9.21,-0.04,0.02,-0.01,22.84
33680962.0,0.35,-0.02,9.23,-0.04,0.03,-0.01,22.88
33703962.0,0.31,-0.03,9.21,-0.04,0.03,-0.01,22.88
33726962.0,0.28,-0.07,9.26,-0.04,0.02,-0.01,22.88
33749962.0,0.23,-0.05,9.18,-0.04,0.02,-0.01,22.98
33772962.0,0.26,-0.11,9.16,-0.04,0.02,-0.01,22.84
33795962.0,0.23,-0.06,9.05,-0.04,0.02,-0.01,22.93
33818962.0,0.25,-0.05,9.18,-0.04,0.02,-0.01,22.93
33841962.0,0.26,-0.06,9.13,-0.04,0.03,-0.01,22.84
33864962.0,0.29,-0.07,9.28,-0.04,0.02,-0.01,22.79
33887962.0,0.27,-0.0,9.15,-0.05,0.03,-0.01,22.88
33910962.0,0.29,-0.01,9.18,-0.04,0.03,-0.01,22.88
33933962.0,0.29,-0.03,9.14,-0.04,0.02,-0.01,22.88
33956962.0,0.22,-0.05,9.26,-0.04,0.03,-0.01,22.84
33979962.0,0.22,-0.06,9.11,-0.04,0.03,-0.01,22.93
34002962.0,0.25,-0.03,9.16,-0.04,0.03,-0.01,22.93
34025962.0,0.27,0.02,9.26,-0.04,0.03,-0.01,22.84
34048962.0,0.23,-0.01,9.19,-0.04,0.03,-0.01,22.88
34071962.0,0.25,-0.03,9.19,-0.04,0.02,-0.01,22.88
34094962.0,0.23,-0.08,9.24,-0.04,0.02,-0.01,22.88
34117962.0,0.3,-0.06,9.17,-0.04,0.02,-0.01,22.88
34140962.0,0.21,-0.06,9.19,-0.04,0.03,-0.01,22.88
34163962.0,0.27,-0.05,9.22,-0.05,0.02,-0.01,23.02
34186962.0,0.24,0.0,9.22,-0.04,0.03,-0.01,22.93
34209962.0,0.34,-0.01,9.18,-0.04,0.02,-0.01,22.93
34232962.0,0.33,-0.08,9.14,-0.04,0.03,-0.01,22.98
34255962.0,0.22,0.01,9.23,-0.04,0.02,-0.01,22.88
34278962.0,0.24,-0.06,9.17,-0.04,0.02,-0.01,22.98
34301962.0,0.23,-0.05,9.21,-0.04,0.03,-0.01,22.98
34324962.0,0.28,0.0,9.19,-0.04,0.02,-0.01,22.93
34347962.0,0.31,-0.01,9.23,-0.04,0.03,-0.01,22.93
34370962.0,0.22,-0.06,9.18,-0.04,0.02,-0.01,22.84
34393962.0,0.28,-0.05,9.23,-0.04,0.02,-0.01,22.93
34416962.0,0.26,-0.09,9.16,-0.04,0.03,-0.01,22.88
34439962.0,0.28,-0.0,9.15,-0.04,0.02,-0.01,22.79
34462962.0,0.25,0.02,9.27,-0.05,0.02,-0.01,22.88
34485962.0,0.3,-0.05,9.24,-0.04,0.02,-0.01,22.88
34508962.0,0.27,-0.0,9.17,-0.05,0.03,-0.01,22.84
34531962.0,0.28,-0.03,9.18,-0.05,0.03,-0.01,22.93
34554962.0,0.25,-0.07,9.15,-0.04,0.02,-0.01,22.93
34577962.0,0.28,-0.04,9.23,-0.04,0.03,-0.01,22.93
34600962.0,0.26,-0.05,9.25,-0.04,0.03,-0.01,22.88
34623962.0,0.23,-0.03,9.15,-0.05,0.02,-0.01,22.88
34646962.0,0.25,-0.0,9.07,-0.04,0.03,-0.01,22.98
34669962.0,0.31,-0.04,9.18,-0.04,0.02,-0.01,22.88
34692962.0,0.22,-0.05,9.07,-0.04,0.02,-0.01,22.84
34715962.0,0.21,-0.06,9.17,-0.04,0.02,-0.01,22.84
34738962.0,0.3,-0.05,9.15,-0.04,0.03,-0.01,22.93
34761962.0,0.27,-0.03,9.15,-0.04,0.03,-0.01,22.93
34784962.0,0.25,-0.03,9.24,-0.04,0.02,-0.01,22.88
34807962.0,0.26,-0.03,9.2,-0.04,0.03,-0.01,22.88
34830962.0,0.25,-0.02,9.15,-0.04,0.03,-0.01,22.88
34853962.0,0.3,-0.04,9.21,-0.05,0.03,-0.01,22.98
34876962.0,0.27,-0.01,9.27,-0.04,0.03,-0.01,22.88
34899962.0,0.26,-0.06,9.17,-0.04,0.02,-0.01,22.93
34922962.0,0.27,-0.04,9.16,-0.04,0.02,-0.01,22.93
34945962.0,0.22,-0.02,9.22,-0.04,0.03,-0.01,22.84
34968962.0,0.26,-0.07,9.23,-0.04,0.03,-0.01,22.88
34991962.0,0.26,-0.01,9.15,-0.04,0.03,-0.01,22.88
35014962.0,0.24,-0.01,9.14,-0.04,0.03,-0.01,22.88
35037962.0,0.28,0.0,9.12,-0.04,0.02,-0.01,22.88
35060962.0,0.24,0.04,9.18,-0.04,0.02,-0.01,22.93
35083962.0,0.23,-0.06,9.17,-0.04,0.02,-0.01,23.02
35106962.0,0.26,-0.0,9.22,-0.04,0.03,-0.01,22.93
35129962.0,0.23,0.01,9.1,-0.04,0.02,-0.01,22.93
35152962.0,0.28,-0.07,9.27,-0.04,0.03,-0.01,22.88
35175962.0,0.28,-0.01,9.18,-0.04,0.02,-0.01,22.98
35198962.0,0.23,-0.07,9.12,-0.04,0.02,-0.01,22.88
35221962.0,0.26,-0.05,9.11,-0.04,0.02,-0.01,22.98
35244962.0,0.27,-0.07,9.28,-0.04,0.03,-0.01,22.93
35267962.0,0.22,-0.0,9.16,-0.04,0.03,-0.01,22.93
35290962.0,0.27,0.03,9.21,-0.04,0.02,-0.01,22.93
35313962.0,0.23,-0.09,9.26,-0.04,0.03,-0.01,22.93
35336962.0,0.3,-0.03,9.27,-0.04,0.03,-0.01,22.88
35359962.0,0.28,-0.09,9.2,-0.04,0.03,-0.01,22.88
35382962.0,0.29,-0.09,9.14,-0.04,0.02,-0.01,22.88
35405962.0,0.29,-0.05,9.24,-0.05,0.02,-0.01,22.88
35428962.0,0.31,-0.05,9.24,-0.04,0.03,-0.01,22.93
35451962.0,0.27,-0.0,9.14,-0.04,0.02,-0.01,22.93
35474962.0,0.27,-0.02,9.14,-0.04,0.03,-0.01,22.84
35497962.0,0.27,-0.06,9.16,-0.04,0.02,-0.01,22.84
35520962.0,0.27,-0.09,9.23,-0.04,0.03,-0.01,22.88
35543962.0,0.3,-0.08,9.2,-0.04,0.02,-0.01,22.88
35566962.0,0.23,-0.02,9.14,-0.05,0.03,-0.01,22.98
35589962.0,0.25,-0.06,9.23,-0.04,0.03,-0.01,22.98
35612962.0,0.28,-0.06,9.26,-0.04,0.03,-0.01,22.98
35635962.0,0.32,-0.02,9.25,-0.04,0.02,-0.01,22.93
35658962.0,0.26,-0.07,9.22,-0.04,0.02,-0.01,22.84
35681962.0,0.26,-0.05,9.24,-0.04,0.02,-0.01,22.93
35704962.0,0.28,-0.09,9.1,-0.04,0.03,-0.01,22.79
35727962.0,0.29,-0.05,9.25,-0.04,0.02,-0.01,22.88
35750962.0,0.31,-0.11,9.17,-0.04,0.03,-0.01,22.88
35773962.0,0.26,0.03,9.28,-0.04,0.02,-0.01,22.98
35796962.0,0.3,-0.0,9.08,-0.04,0.02,-0.01,22.93
35819962.0,0.3,0.0,9.25,-0.04,0.02,-0.01,22.93
35842962.0,0.22,-0.04,9.18,-0.04,0.02,-0.01,22.93
35865962.0,0.31,-0.09,9.19,-0.04,0.03,-0.01,22.84
35888962.0,0.2,-0.04,9.18,-0.04,0.02,-0.01,22.88
35911962.0,0.23,-0.06,9.21,-0.04,0.02,-0.01,22.98
35934962.0,0.33,-0.06,9.22,-0.04,0.02,-0.01,22.79
35957962.0,0.31,-0.06,9.21,-0.04,0.03,-0.01,22.79
35980962.0,0.29,-0.1,9.12,-0.05,0.03,-0.01,23.02
36003962.0,0.25,0.01,9.19,-0.04,0.02,-0.01,22.93
36026962.0,0.31,-0.08,9.11,-0.04,0.02,-0.01,22.84
36049962.0,0.3,-0.05,9.25,-0.04,0.02,-0.01,22.93
36072962.0,0.23,-0.04,9.15,-0.04,0.02,-0.01,22.88
36095962.0,0.29,-0.1,9.17,-0.04,0.03,-0.01,22.98
36118962.0,0.29,-0.07,9.22,-0.04,0.02,-0.01,22.88
36141962.0,0.27,-0.05,9.19,-0.04,0.03,-0.01,22.98
36164962.0,0.25,-0.02,9.22,-0.04,0.02,-0.01,22.84
36187962.0,0.25,-0.07,9.25,-0.04,0.02,-0.01,22.84
36210962.0,0.23,-0.01,9.21,-0.04,0.02,-0.01,22.84
36233962.0,0.29,-0.04,9.18,-0.04,0.02,-0.01,22.93
36256962.0,0.31,-0.04,9.2,-0.04,0.02,-0.01,22.88
36279962.0,0.28,-0.07,9.26,-0.04,0.03,-0.01,22.88
36302962.0,0.24,-0.1,9.23,-0.04,0.03,-0.01,22.98
36325962.0,0.23,-0.06,9.19,-0.04,0.02,-0.01,22.88
36348962.0,0.25,-0.05,9.18,-0.05,0.03,-0.01,22.88
36371962.0,0.21,-0.05,9.21,-0.04,0.03,-0.01,22.84
36394962.0,0.26,-0.1,9.15,-0.04,0.03,-0.01,22.93
36417962.0,0.26,-0.08,9.27,-0.04,0.03,-0.01,22.93
36440962.0,0.35,-0.02,9.21,-0.04,0.02,-0.01,22.88
36463962.0,0.27,-0.11,9.23,-0.04,0.03,-0.01,22.98
36486962.0,0.26,-0.03,9.18,-0.04,0.02,-0.01,22.88
36509962.0,0.26,-0.05,9.13,-0.04,0.02,-0.01,22.98
36532962.0,0.3,-0.04,9.17,-0.04,0.02,-0.01,22.93
36555962.0,0.26,-0.02,9.12,-0.04,0.03,-0.01,22.93
36578962.0,0.25,-0.04,9.07,-0.04,0.02,-0.01,22.93
36601962.0,0.3,-0.06,9.16,-0.04,0.02,-0.01,22.93
36624962.0,0.28,-0.02,9.27,-0.04,0.03,-0.01,22.88
36647962.0,0.24,0.03,9.19,-0.04,0.02,-0.01,22.88
36670962.0,0.31,-0.02,9.22,-0.04,0.02,-0.01,22.79
36693962.0,0.26,-0.04,9.23,-0.04,0.02,-0.01,22.88
36716962.0,0.25,-0.04,9.17,-0.04,0.02,-0.01,23.02
36739962.0,0.23,-0.09,9.16,-0.04,0.02,-0.01,22.93
36762962.0,0.28,-0.03,9.14,-0.04,0.02,-0.01,22.93
36785962.0,0.25,-0.07,9.13,-0.04,0.03,-0.01,22.93
36808962.0,0.27,-0.06,9.21,-0.04,0.03,-0.01,22.88
36831962.0,0.28,0.01,9.13,-0.04,0.03,-0.01,22.98
36854962.0,0.23,-0.02,9.23,-0.04,0.03,-0.01,22.98
36877962.0,0.25,-0.04,9.17,-0.04,0.02,-0.01,22.88
36900962.0,0.28,-0.08,9.24,-0.04,0.03,-0.01,22.84
36923962.0,0.25,-0.09,9.16,-0.05,0.03,-0.01,22.93
36946962.0,0.24,0.0,9.21,-0.04,0.02,-0.01,22.93
36969962.0,0.27,-0.03,9.2,-0.04,0.02,-0.01,22.84
36992962.0,0.21,-0.02,9.22,-0.04,0.03,-0.01,22.88
37015962.0,0.23,-0.06,9.18,-0.04,0.02,-0.01,22.98
37038962.0,0.27,-0.06,9.22,-0.04,0.02,-0.01,22.88
37061962.0,0.3,-0.03,9.16,-0.04,0.03,-0.01,22.88
37084962.0,0.24,-0.13,9.16,-0.04,0.02,-0.01,22.88
37107962.0,0.26,-0.01,9.21,-0.04,0.03,-0.01,22.93
37130962.0,0.19,-0.09,9.16,-0.04,0.03,-0.01,22.84
37153962.0,0.25,-0.05,9.15,-0.04,0.03,-0.01,23.02
37176962.0,0.28,-0.04,9.13,-0.04,0.03,-0.01,22.88
37199962.0,0.27,0.0,9.22,-0.04,0.02,-0.01,22.98
37222962.0,0.29,-0.01,9.15,-0.04,0.03,-0.01,22.98
37245962.0,0.25,-0.06,9.16,-0.05,0.02,-0.01,22.88
37268962.0,0.2,0.0,9.24,-0.04,0.03,-0.01,22.93
37291962.0,0.29,-0.1,9.15,-0.04,0.02,-0.01,22.93
37314962.0,0.29,-0.05,9.13,-0.04,0.03,-0.01,22.93
37337962.0,0.28,-0.03,9.28,-0.04,0.03,-0.01,22.84
37360962.0,0.23,-0.02,9.14,-0.04,0.02,-0.01,22.98
37383962.0,0.27,-0.03,9.23,-0.04,0.02,-0.01,22.98
37406962.0,0.24,-0.09,9.16,-0.04,0.03,-0.01,22.88
37429962.0,0.25,-0.11,9.24,-0.04,0.03,-0.01,22.98
37452962.0,0.29,-0.02,9.19,-0.04,0.03,-0.01,22.84
37475962.0,0.24,-0.02,9.22,-0.04,0.03,-0.01,22.93
37498962.0,0.31,-0.04,9.2,-0.04,0.03,-0.01,22.93
37521962.0,0.27,-0.05,9.18,-0.04,0.02,-0.01,22.93
37544962.0,0.27,-0.12,9.24,-0.04,0.03,-0.01,22.88
37567962.0,0.28,-0.06,9.21,-0.04,0.03,-0.01,22.98
37590962.0,0.22,-0.05,9.14,-0.04,0.02,-0.01,22.88
37613962.0,0.26,-0.07,9.22,-0.04,0.03,-0.01,22.98
37636962.0,0.29,-0.03,9.17,-0.04,0.02,-0.01,23.02
37659962.0,0.22,-0.06,9.25,-0.04,0.03,-0.01,22.84
37682962.0,0.22,-0.13,9.13,-0.04,0.02,-0.01,22.93
37705962.0,0.31,-0.01,9.21,-0.04,0.03,-0.01,22.93
37728962.0,0.26,-0.04,9.23,-0.04,0.02,-0.01,22.98
37751962.0,0.24,-0.06,9.25,-0.04,0.03,-0.01,22.88
37774962.0,0.29,-0.03,9.24,-0.04,0.02,-0.01,22.88
37797962.0,0.27,-0.08,9.19,-0.04,0.03,-0.01,22.88
37820962.0,0.23,-0.03,9.09,-0.04,0.03,-0.01,22.98
37843962.0,0.22,-0.08,9.27,-0.04,0.03,-0.01,23.02
37866962.0,0.28,-0.06,9.18,-0.04,0.02,-0.01,23.02
37889962.0,0.26,-0.04,9.12,-0.04,0.02,-0.01,22.93
37912962.0,0.32,-0.07,9.25,-0.04,0.03,-0.01,22.79
37935962.0,0.25,-0.05,9.24,-0.04,0.02,-0.01,22.98
37958962.0,0.28,-0.01,9.14,-0.04,0.03,-0.01,22.79
37981962.0,0.24,0.04,9.15,-0.04,0.03,-0.01,22.98
38004962.0,0.23,-0.06,9.2,-0.04,0.02,-0.01,22.93
38027962.0,0.31,-0.07,9.2,-0.04,0.03,-0.01,22.93
38050962.0,0.29,-0.06,9.17,-0.05,0.02,-0.01,22.93
38073962.0,0.27,-0.05,9.17,-0.04,0.02,-0.01,22.84
38096962.0,0.33,-0.06,9.24,-0.05,0.02,-0.01,22.98
38119962.0,0.27,-0.05,9.22,-0.05,0.03,-0.01,22.98
38142962.0,0.23,-0.05,9.18,-0.04,0.03,-0.01,22.88
38165962.0,0.25,-0.02,9.19,-0.04,0.03,-0.01,22.88
38188962.0,0.26,0.02,9.15,-0.04,0.03,-0.01,22.93
38211962.0,0.29,-0.08,9.17,-0.04,0.03,-0.01,22.93
38234962.0,0.24,-0.06,9.2,-0.04,0.03,-0.01,22.93
38257962.0,0.25,0.0,9.22,-0.04,0.02,-0.01,23.02
38280962.0,0.31,-0.08,9.24,-0.04,0.03,-0.01,22.98
38303962.0,0.24,-0.05,9.13,-0.04,0.03,-0.01,22.98
38326962.0,0.19,-0.04,9.09,-0.04,0.03,-0.01,22.88
38349962.0,0.31,-0.05,9.22,-0.05,0.03,-0.01,22.88
38372962.0,0.27,-0.03,9.25,-0.04,0.02,-0.01,23.02
38395962.0,0.25,-0.04,9.18,-0.04,0.03,-0.01,22.93
38418962.0,0.33,-0.05,9.25,-0.04,0.03,-0.01,22.93
38441962.0,0.27,0.0,9.18,-0.04,0.03,-0.01,22.84
38464962.0,0.24,-0.01,9.18,-0.04,0.03,-0.01,22.98
38487962.0,0.25,-0.09,9.18,-0.04,0.03,-0.01,22.88
38510962.0,0.26,-0.09,9.16,-0.04,0.03,-0.01,22.98
38533962.0,0.27,0.0,9.13,-0.04,0.03,-0.01,22.88
38556962.0,0.28,-0.08,9.2,-0.04,0.02,-0.01,22.98
38579962.0,0.33,-0.02,9.23,-0.04,0.03,-0.01,22.93
38602962.0,0.29,0.0,9.22,-0.04,0.03,-0.01,22.93
38625962.0,0.28,-0.02,9.14,-0.04,0.02,-0.01,22.93
38648962.0,0.25,-0.06,9.2,-0.04,0.02,-0.01,22.98
38671962.0,0.3,-0.05,9.14,-0.04,0.02,-0.01,22.98
38694962.0,0.24,-0.01,9.3,-0.04,0.02,-0.01,22.98
38717962.0,0.29,-0.06,9.16,-0.04,0.03,-0.01,22.88
38740962.0,0.28,-0.02,9.24,-0.04,0.03,-0.01,22.93
38763962.0,0.31,-0.01,9.22,-0.04,0.02,-0.01,22.93
38786962.0,0.2,-0.0,9.27,-0.04,0.02,-0.01,22.93
38809962.0,0.23,-0.05,9.27,-0.04,0.03,-0.01,22.93
38832962.0,0.25,-0.1,9.2,-0.04,0.02,-0.01,22.98
38855962.0,0.28,-0.06,9.08,-0.04,0.02,-0.01,22.88
38878962.0,0.32,-0.01,9.14,-0.05,0.02,-0.01,22.88
38901962.0,0.25,-0.06,9.15,-0.04,0.02,-0.01,22.88
38924962.0,0.24,0.02,9.14,-0.04,0.02,-0.01,22.93
38947962.0,0.29,-0.04,9.14,-0.04,0.02,-0.01,22.93
38970962.0,0.24,-0.05,9.14,-0.04,0.02,-0.01,23.02
38993962.0,0.3,-0.06,9.13,-0.04,0.02,-0.01,22.84
39016962.0,0.27,0.0,9.12,-0.04,0.02,-0.01,23.07
39039962.0,0.24,-0.05,9.12,-0.04,0.02,-0.01,22.98
39062962.0,0.23,-0.05,9.2,-0.04,0.02,-0.01,22.98
39085962.0,0.32,-0.06,9.22,-0.04,0.02,-0.01,22.88
39108962.0,0.3,-0.05,9.24,-0.04,0.03,-0.01,22.93
39131962.0,0.28,-0.04,9.23,-0.04,0.03,-0.01,22.93
39154962.0,0.28,-0.06,9.26,-0.04,0.02,-0.01,22.93
39177962.0,0.24,0.04,9.18,-0.04,0.03,-0.01,22.93
39200962.0,0.2,-0.01,9.23,-0.04,0.02,-0.01,22.88
39223962.0,0.28,0.0,9.13,-0.04,0.02,-0.01,22.98
39246962.0,0.25,-0.05,9.15,-0.04,0.03,-0.01,22.98
39269962.0,0.25,-0.03,9.1,-0.05,0.02,-0.01,22.98
39292962.0,0.29,0.0,9.33,-0.04,0.02,-0.01,22.98
39315962.0,0.31,-0.03,9.11,-0.04,0.02,-0.01,22.93
39338962.0,0.27,-0.05,9.28,-0.04,0.02,-0.01,22.93
39361962.0,0.3,-0.01,9.23,-0.04,0.03,-0.01,22.93
39384962.0,0.29,-0.06,9.14,-0.04,0.03,-0.01,22.88
39407962.0,0.23,-0.04,9.21,-0.05,0.02,-0.01,22.88
39430962.0,0.24,-0.16,9.2,-0.04,0.03,-0.01,22.88
39453962.0,0.3,-0.02,9.18,-0.04,0.02,-0.01,22.98
39476962.0,0.29,-0.09,9.27,-0.04,0.02,-0.01,22.93
39499962.0,0.3,-0.0,9.23,-0.04,0.03,-0.01,23.02
39522962.0,0.28,-0.13,9.15,-0.04,0.03,-0.01,22.93
39545962.0,0.23,-0.06,9.26,-0.04,0.03,-0.01,23.02
39568962.0,0.27,-0.01,9.13,-0.04,0.02,-0.01,22.88
39591962.0,0.33,-0.03,9.24,-0.04,0.02,-0.01,22.98
39614962.0,0.26,-0.0,9.16,-0.04,0.03,-0.01,22.98
39637962.0,0.24,-0.04,9.16,-0.04,0.02,-0.01,22.88
39660962.0,0.25,-0.07,9.19,-0.04,0.03,-0.01,23.02
39683962.0,0.3,-0.04,9.22,-0.04,0.02,-0.01,22.93
39706962.0,0.23,-0.05,9.17,-0.04,0.02,-0.01,22.93
39729962.0,0.26,-0.1,9.2,-0.04,0.02,-0.01,22.93
39752962.0,0.29,-0.03,9.23,-0.04,0.03,-0.01,22.88
39775962.0,0.27,-0.11,9.18,-0.04,0.03,-0.01,22.98
39798962.0,0.24,-0.03,9.2,-0.04,0.03,-0.01,22.98
39821962.0,0.24,0.01,9.17,-0.04,0.02,-0.01,22.98
39844962.0,0.33,-0.04,9.17,-0.04,0.03,-0.01,22.93
39867962.0,0.23,-0.09,9.24,-0.04,0.03,-0.01,22.93
39890962.0,0.24,-0.06,9.21,-0.04,0.02,-0.01,22.93
39913962.0,0.22,-0.1,9.27,-0.04,0.02,-0.01,23.02
39936962.0,0.28,0.02,9.2,-0.04,0.02,-0.01,23.07
39959962.0,0.22,-0.1,9.2,-0.04,0.02,-0.01,22.98
39982962.0,0.31,-0.06,9.25,-0.04,0.02,-0.01,22.98
40005962.0,0.27,-0.09,9.19,-0.04,0.03,-0.01,22.98
40028962.0,0.26,-0.05,9.26,-0.04,0.02,-0.01,22.98
40051962.0,0.31,-0.06,9.16,-0.04,0.02,-0.01,23.02
40074962.0,0.28,-0.06,9.17,-0.04,0.02,-0.01,22.93
40097962.0,0.26,-0.02,9.2,-0.04,0.02,-0.01,22.93
40120962.0,0.25,-0.02,9.13,-0.04,0.02,-0.01,22.88
40143962.0,0.24,-0.06,9.23,-0.04,0.02,-0.01,22.98
40166962.0,0.28,0.01,9.18,-0.04,0.03,-0.01,22.98
40189962.0,0.27,-0.1,9.2,-0.04,0.02,-0.01,22.98
40212962.0,0.24,-0.1,9.23,-0.04,0.02,-0.01,23.02
40235962.0,0.24,-0.02,9.14,-0.04,0.02,-0.01,22.93
40258962.0,0.27,-0.04,9.22,-0.04,0.03,-0.01,22.93
40281962.0,0.25,-0.02,9.16,-0.04,0.03,-0.01,22.84
40304962.0,0.26,-0.1,9.2,-0.04,0.03,-0.01,22.98
40327962.0,0.32,-0.02,9.21,-0.04,0.02,-0.01,22.98
40350962.0,0.28,-0.01,9.22,-0.04,0.02,-0.01,22.88
40373962.0,0.26,0.03,9.06,-0.04,0.03,-0.01,22.88
40396962.0,0.29,-0.08,9.1,-0.04,0.03,-0.01,23.02
40419962.0,0.29,-0.03,9.17,-0.04,0.03,-0.01,22.93
40442962.0,0.27,-0.02,9.17,-0.04,0.02,-0.01,22.93
40465962.0,0.27,-0.1,9.12,-0.05,0.02,-0.01,22.93
40488962.0,0.27,0.0,9.2,-0.04,0.03,-0.01,22.98
40511962.0,0.27,-0.1,9.21,-0.04,0.03,-0.01,22.98
40534962.0,0.3,-0.03,9.21,-0.04,0.03,-0.01,22.98
40557962.0,0.21,-0.08,9.21,-0.05,0.02,-0.01,22.88
40580962.0,0.24,-0.07,9.16,-0.04,0.03,-0.01,22.93
40603962.0,0.29,-0.07,9.19,-0.05,0.02,-0.01,22.93
40626962.0,0.28,-0.06,9.12,-0.04,0.02,-0.01,22.93
40649962.0,0.29,0.0,9.13,-0.04,0.02,-0.01,23.02
40672962.0,0.29,-0.08,9.14,-0.04,0.03,-0.01,22.98
40695962.0,0.27,-0.06,9.22,-0.04,0.03,-0.01,22.88
40718962.0,0.26,-0.02,9.2,-0.04,0.03,-0.01,22.88
40741962.0,0.23,-0.02,9.16,-0.05,0.03,-0.01,22.98
40764962.0,0.23,-0.08,9.19,-0.04,0.02,-0.01,22.98
40787962.0,0.25,-0.04,9.22,-0.04,0.03,-0.01,22.98
40810962.0,0.34,-0.01,9.19,-0.04,0.03,-0.01,22.93
40833962.0,0.2,-0.06,9.23,-0.04,0.02,-0.01,22.93
40856962.0,0.17,-0.03,9.2,-0.05,0.02,-0.01,22.98
40879962.0,0.26,-0.05,9.17,-0.04,0.03,-0.01,22.88
40902962.0,0.29,-0.02,9.22,-0.04,0.03,-0.01,22.98
40925962.0,0.3,-0.0,9.17,-0.05,0.03,-0.01,22.88
40948962.0,0.23,-0.06,9.15,-0.04,0.02,-0.01,22.84
40971962.0,0.25,-0.01,9.24,-0.04,0.03,-0.01,22.84
40994962.0,0.27,0.01,9.21,-0.04,0.02,-0.01,23.02
41017962.0,0.26,-0.07,9.19,-0.04,0.02,-0.01,23.02
41040962.0,0.23,-0.01,9.19,-0.04,0.02,-0.01,22.88
41063962.0,0.24,-0.02,9.17,-0.04,0.03,-0.01,22.98
41086962.0,0.26,-0.04,9.18,-0.04,0.02,-0.01,22.98
41109962.0,0.22,-0.04,9.26,-0.04,0.03,-0.01,22.98
41132962.0,0.25,-0.06,9.24,-0.04,0.02,-0.01,22.93
41155962.0,0.29,-0.06,9.18,-0.04,0.02,-0.01,23.02
41178962.0,0.28,-0.01,9.19,-0.04,0.03,-0.01,22.93
41201962.0,0.27,0.01,9.25,-0.04,0.02,-0.01,22.93
41224962.0,0.27,-0.0,9.12,-0.04,0.02,-0.01,22.98
41247962.0,0.22,-0.08,9.28,-0.04,0.03,-0.01,22.98
41270962.0,0.28,-0.02,9.17,-0.04,0.02,-0.01,22.88
41293962.0,0.34,-0.05,9.2,-0.04,0.03,-0.01,22.98
41316962.0,0.23,-0.01,9.21,-0.04,0.02,-0.01,22.84
41339962.0,0.26,-0.06,9.27,-0.04,0.02,-0.01,22.93
41362962.0,0.27,0.03,9.2,-0.05,0.02,-0.01,22.84
41385962.0,0.28,0.02,9.27,-0.04,0.03,-0.01,22.93
41408962.0,0.28,-0.08,9.24,-0.04,0.03,-0.01,22.98
41431962.0,0.28,-0.02,9.11,-0.04,0.02,-0.01,22.98
41454962.0,0.26,-0.05,9.26,-0.04,0.02,-0.01,22.88
41477962.0,0.29,-0.01,9.17,-0.04,0.03,-0.01,22.98
41500962.0,0.23,-0.08,9.22,-0.05,0.03,-0.01,22.98
41523962.0,0.24,-0.08,9.23,-0.04,0.02,-0.01,22.88
41546962.0,0.25,0.0,9.19,-0.04,0.02,-0.01,22.93
41569962.0,0.28,-0.05,9.25,-0.04,0.02,-0.01,22.93
41592962.0,0.26,-0.02,9.19,-0.04,0.03,-0.01,22.98
41615962.0,0.28,-0.03,9.17,-0.04,0.02,-0.01,22.88
41638962.0,0.24,-0.09,9.25,-0.05,0.03,-0.01,22.98
41661962.0,0.3,-0.05,9.17,-0.04,0.02,-0.01,22.98
41684962.0,0.26,-0.06,9.2,-0.04,0.02,-0.01,22.93
41707962.0,0.27,-0.06,9.2,-0.04,0.02,-0.01,22.93
41730962.0,0.31,-0.06,9.16,-0.04,0.03,-0.01,22.93
41753962.0,0.22,0.0,9.21,-0.04,0.02,-0.01,22.93
41776962.0,0.25,-0.03,9.18,-0.04,0.02,-0.01,22.98
41799962.0,0.32,-0.04,9.12,-0.04,0.03,-0.01,22.98
41822962.0,0.25,-0.08,9.17,-0.04,0.03,-0.01,22.98
41845962.0,0.27,-0.03,9.16,-0.04,0.02,-0.01,22.88
41868962.0,0.32,-0.02,9.24,-0.04,0.03,-0.01,22.93
41891962.0,0.24,-0.06,9.25,-0.04,0.03,-0.01,22.93
41914962.0,0.27,-0.04,9.18,-0.04,0.02,-0.01,23.02
41937962.0,0.25,-0.05,9.13,-0.04,0.03,-0.01,22.93
41960962.0,0.29,-0.0,9.14,-0.04,0.03,-0.01,22.98
41983962.0,0.25,-0.04,9.1,-0.04,0.02,-0.01,22.88
42006962.0,0.3,-0.05,9.14,-0.04,0.03,-0.01,22.98
42029962.0,0.29,-0.04,9.2,-0.05,0.02,-0.01,22.88
42052962.0,0.28,-0.06,9.25,-0.04,0.02,-0.01,22.93
42075962.0,0.32,-0.06,9.2,-0.04,0.03,-0.01,23.02
42098962.0,0.24,-0.08,9.24,-0.04,0.03,-0.01,22.93
42121962.0,0.25,-0.07,9.14,-0.05,0.03,-0.01,23.02
42144962.0,0.28,-0.05,9.16,-0.04,0.03,-0.01,22.88
42167962.0,0.25,-0.08,9.09,-0.04,0.02,-0.01,22.98
42190962.0,0.29,-0.05,9.23,-0.04,0.03,-0.01,22.98
42213962.0,0.22,-0.12,9.2,-0.04,0.02,-0.01,22.98
42236962.0,0.29,-0.05,9.2,-0.04,0.02,-0.01,22.98
42259962.0,0.25,-0.05,9.13,-0.04,0.02,-0.01,22.98
42282962.0,0.28,-0.04,9.15,-0.04,0.03,-0.01,22.93
42305962.0,0.29,-0.03,9.21,-0.04,0.02,-0.01,23.02
42328962.0,0.27,-0.07,9.21,-0.04,0.03,-0.01,22.88
42351962.0,0.33,-0.02,9.18,-0.04,0.02,-0.01,22.88
42374962.0,0.28,-0.02,9.2,-0.05,0.03,-0.01,22.98
42397962.0,0.32,-0.11,9.25,-0.04,0.03,-0.01,22.88
42420962.0,0.27,-0.05,9.12,-0.04,0.02,-0.01,22.84
42443962.0,0.29,-0.01,9.21,-0.04,0.03,-0.01,22.93
42466962.0,0.29,-0.09,9.11,-0.04,0.03,-0.01,23.02
42489962.0,0.22,-0.05,9.18,-0.04,0.02,-0.01,23.02
42512962.0,0.31,-0.09,9.18,-0.04,0.03,-0.01,22.88
42535962.0,0.21,-0.09,9.16,-0.04,0.03,-0.01,22.88
42558962.0,0.22,-0.06,9.23,-0.04,0.02,-0.01,22.88
42581962.0,0.3,-0.06,9.24,-0.04,0.02,-0.01,22.88
42604962.0,0.34,-0.05,9.27,-0.04,0.03,-0.01,22.93
42627962.0,0.23,-0.1,9.2,-0.04,0.02,-0.01,22.93
42650962.0,0.34,-0.06,9.16,-0.04,0.03,-0.01,22.93
42673962.0,0.35,0.03,9.18,-0.04,0.02,-0.01,23.02
42696962.0,0.3,-0.02,9.2,-0.04,0.03,-0.01,22.98
42719962.0,0.23,-0.01,9.19,-0.04,0.03,-0.01,22.88
42742962.0,0.26,-0.07,9.26,-0.04,0.02,-0.01,22.98
42765962.0,0.27,-0.0,9.18,-0.04,0.03,-0.01,22.98
42788962.0,0.31,-0.04,9.09,-0.04,0.03,-0.01,22.93
42811962.0,0.28,-0.04,9.16,-0.04,0.03,-0.01,22.93
42834962.0,0.28,-0.07,9.21,-0.04,0.03,-0.01,23.02
42857962.0,0.32,-0.06,9.17,-0.05,0.03,-0.01,22.93
42880962.0,0.25,-0.07,9.12,-0.04,0.02,-0.01,22.98
42903962.0,0.28,-0.05,9.18,-0.04,0.02,-0.01,22.98
42926962.0,0.24,-0.06,9.22,-0.04,0.02,-0.01,22.98
42949962.0,0.28,-0.05,9.14,-0.04,0.02,-0.01,22.98
42972962.0,0.25,-0.07,9.22,-0.04,0.03,-0.01,22.88
42995962.0,0.23,-0.06,9.22,-0.04,0.02,-0.01,22.98
43018962.0,0.3,0.01,9.22,-0.04,0.02,-0.01,22.93
43041962.0,0.23,-0.02,9.19,-0.04,0.03,-0.01,22.93
43064962.0,0.25,-0.01,9.21,-0.05,0.03,-0.01,22.88
43087962.0,0.26,0.0,9.18,-0.04,0.02,-0.01,22.98
43110962.0,0.23,-0.09,9.25,-0.04,0.03,-0.01,22.88
43133962.0,0.27,-0.03,9.21,-0.04,0.02,-0.01,22.88
43156962.0,0.31,-0.08,9.12,-0.04,0.02,-0.01,22.93
43179962.0,0.24,-0.02,9.16,-0.04,0.02,-0.01,22.93
43202962.0,0.25,-0.09,9.23,-0.04,0.02,-0.01,22.93
43225962.0,0.24,-0.05,9.22,-0.04,0.02,-0.01,23.02
43248962.0,0.25,-0.09,9.17,-0.04,0.02,-0.01,22.98
43271962.0,0.29,0.0,9.28,-0.04,0.02,-0.01,22.88
43294962.0,0.25,-0.01,9.28,-0.04,0.02,-0.01,22.88
43317962.0,0.24,-0.07,9.19,-0.05,0.03,-0.01,22.88
43340962.0,0.26,-0.09,9.23,-0.04,0.02,-0.01,22.93
43363962.0,0.3,-0.01,9.21,-0.04,0.02,-0.01,22.93
43386962.0,0.25,-0.08,9.34,-0.04,0.02,-0.01,22.93
43409962.0,0.29,0.01,9.24,-0.04,0.03,-0.01,22.93
43432962.0,0.21,-0.04,9.21,-0.04,0.02,-0.01,22.88
43455962.0,0.24,0.01,9.18,-0.04,0.02,-0.01,22.98
43478962.0,0.25,-0.08,9.19,-0.04,0.02,-0.01,22.98
43501962.0,0.29,0.01,9.21,-0.04,0.03,-0.01,22.98
43524962.0,0.27,-0.11,9.22,-0.04,0.02,-0.01,22.93
43547962.0,0.24,-0.02,9.15,-0.05,0.02,-0.01,22.93
43570962.0,0.27,-0.07,9.21,-0.04,0.02,-0.01,23.02
43593962.0,0.22,-0.02,9.21,-0.04,0.03,-0.01,23.02
43616962.0,0.3,0.02,9.15,-0.04,0.02,-0.01,22.98
43639962.0,0.29,-0.08,9.23,-0.04,0.02,-0.01,22.98
43662962.0,0.27,-0.03,9.17,-0.04,0.02,-0.01,22.98
43685962.0,0.23,-0.07,9.15,-0.04,0.03,-0.01,22.88
43708962.0,0.28,-0.03,9.17,-0.04,0.03,-0.01,22.88
43731962.0,0.25,-0.05,9.18,-0.04,0.03,-0.01,22.88
43754962.0,0.29,-0.03,9.1,-0.04,0.02,-0.01,23.02
43777962.0,0.25,-0.02,9.17,-0.04,0.02,-0.01,22.93
43800962.0,0.2,-0.05,9.17,-0.04,0.03,-0.01,22.88
43823962.0,0.3,-0.07,9.21,-0.04,0.02,-0.01,22.98
43846962.0,0.25,0.01,9.16,-0.04,0.02,-0.01,22.98
43869962.0,0.25,-0.06,9.14,-0.04,0.02,-0.01,22.98
43892962.0,0.26,-0.07,9.18,-0.04,0.02,-0.01,23.02
43915962.0,0.23,-0.04,9.19,-0.04,0.02,-0.01,22.93
43938962.0,0.27,0.0,9.11,-0.04,0.03,-0.01,22.93
43961962.0,0.22,-0.03,9.18,-0.05,0.02,-0.01,22.93
43984962.0,0.3,-0.05,9.19,-0.04,0.03,-0.01,22.88
44007962.0,0.26,-0.03,9.2,-0.04,0.03,-0.01,22.88
44030962.0,0.21,-0.06,9.17,-0.04,0.02,-0.01,22.88
44053962.0,0.23,0.01,9.16,-0.04,0.02,-0.01,23.07
44076962.0,0.31,-0.06,9.08,-0.04,0.02,-0.01,22.93
44099962.0,0.26,-0.02,9.26,-0.05,0.02,-0.01,22.93
44122962.0,0.26,-0.0,9.14,-0.04,0.03,-0.01,22.84
44145962.0,0.21,-0.07,9.21,-0.04,0.03,-0.01,22.93
44168962.0,0.29,-0.03,9.17,-0.04,0.02,-0.01,22.88
44191962.0,0.31,-0.07,9.11,-0.04,0.03,-0.01,22.98
44214962.0,0.3,-0.02,9.14,-0.04,0.02,-0.01,22.98
44237962.0,0.24,-0.01,9.24,-0.04,0.02,-0.01,22.88
44260962.0,0.31,-0.07,9.17,-0.04,0.03,-0.01,22.93
44283962.0,0.29,-0.04,9.23,-0.04,0.03,-0.01,23.02
44306962.0,0.24,-0.05,9.19,-0.04,0.03,-0.01,22.93
44329962.0,0.24,-0.01,9.11,-0.04,0.02,-0.01,22.93
44352962.0,0.27,-0.03,9.2,-0.04,0.02,-0.01,22.98
44375962.0,0.2,0.04,9.19,-0.04,0.03,-0.01,22.98
44398962.0,0.27,-0.05,9.21,-0.04,0.03,-0.01,22.88
44421962.0,0.28,-0.01,9.15,-0.04,0.03,-0.01,22.98
44444962.0,0.28,-0.09,9.29,-0.04,0.02,-0.01,22.98
44467962.0,0.25,-0.04,9.23,-0.04,0.03,-0.01,22.88
44490962.0,0.24,-0.06,9.18,-0.04,0.03,-0.01,23.02
44513962.0,0.27,-0.03,9.15,-0.04,0.02,-0.01,22.93
44536962.0,0.25,-0.08,9.11,-0.05,0.03,-0.01,22.88
44559962.0,0.23,-0.1,9.17,-0.04,0.02,-0.01,22.88
44582962.0,0.23,-0.06,9.19,-0.04,0.02,-0.01,23.07
44605962.0,0.27,-0.02,9.21,-0.04,0.03,-0.01,22.98
44628962.0,0.24,-0.02,9.18,-0.04,0.02,-0.01,22.93
44651962.0,0.31,-0.07,9.21,-0.04,0.02,-0.01,23.02
44674962.0,0.23,-0.11,9.18,-0.04,0.03,-0.01,22.93
44697962.0,0.27,-0.01,9.15,-0.04,0.03,-0.01,22.93
44720962.0,0.29,-0.04,9.22,-0.04,0.02,-0.01,22.98
44743962.0,0.31,-0.05,9.22,-0.04,0.03,-0.01,22.98
44766962.0,0.27,0.02,9.21,-0.04,0.02,-0.01,22.98
44789962.0,0.27,-0.05,9.11,-0.04,0.03,-0.01,22.98
44812962.0,0.27,-0.06,9.21,-0.04,0.03,-0.01,23.02
44835962.0,0.31,0.04,9.28,-0.04,0.03,-0.01,22.93
44858962.0,0.3,-0.06,9.15,-0.04,0.03,-0.01,22.93
44881962.0,0.24,-0.05,9.25,-0.04,0.02,-0.01,22.93
44904962.0,0.28,-0.04,9.13,-0.04,0.02,-0.01,22.98
44927962.0,0.28,-0.02,9.14,-0.04,0.02,-0.01,22.98
44950962.0,0.33,-0.04,9.18,-0.04,0.02,-0.01,22.98
44973962.0,0.26,-0.08,9.21,-0.04,0.02,-0.01,22.98
44996962.0,0.18,-0.03,9.21,-0.04,0.03,-0.01,23.02
45019962.0,0.3,-0.03,9.22,-0.04,0.03,-0.01,22.93
45042962.0,0.3,0.0,9.2,-0.04,0.02,-0.01,22.93
45065962.0,0.23,-0.04,9.15,-0.04,0.03,-0.01,22.93
45088962.0,0.25,-0.03,9.19,-0.04,0.03,-0.01,22.98
45111962.0,0.27,-0.04,9.15,-0.04,0.03,-0.01,22.98
45134962.0,0.24,0.0,9.22,-0.04,0.03,-0.01,22.88
45157962.0,0.23,-0.08,9.11,-0.04,0.02,-0.01,22.98
45180962.0,0.26,0.0,9.21,-0.04,0.03,-0.01,22.98
45203962.0,0.26,-0.0,9.27,-0.04,0.02,-0.01,22.88
45226962.0,0.32,-0.06,9.16,-0.04,0.02,-0.01,22.93
45249962.0,0.25,-0.01,9.2,-0.04,0.02,-0.01,22.93
45272962.0,0.32,-0.03,9.24,-0.04,0.02,-0.01,22.98
45295962.0,0.26,-0.06,9.2,-0.04,0.03,-0.01,23.07
45318962.0,0.28,-0.05,9.17,-0.04,0.03,-0.01,22.98
45341962.0,0.34,-0.04,9.2,-0.04,0.03,-0.01,22.88
45364962.0,0.23,-0.07,9.21,-0.04,0.03,-0.01,22.93
45387962.0,0.27,-0.02,9.16,-0.04,0.02,-0.01,23.02
45410962.0,0.26,-0.06,9.27,-0.04,0.02,-0.01,22.84
45433962.0,0.29,-0.07,9.2,-0.04,0.02,-0.01,22.93
45456962.0,0.27,-0.07,9.17,-0.04,0.02,-0.01,22.98
45479962.0,0.28,-0.01,9.29,-0.04,0.02,-0.01,22.98
45502962.0,0.28,0.01,9.23,-0.04,0.03,-0.01,22.88
45525962.0,0.24,-0.05,9.17,-0.04,0.03,-0.01,22.88
45548962.0,0.28,-0.04,9.19,-0.04,0.03,-0.01,23.02
45571962.0,0.27,0.02,9.24,-0.05,0.03,-0.01,23.02
45594962.0,0.28,-0.03,9.21,-0.04,0.02,-0.01,22.93
45617962.0,0.27,0.04,9.12,-0.04,0.03,-0.01,23.02
45640962.0,0.22,-0.04,9.24,-0.04,0.03,-0.01,22.98
45663962.0,0.27,-0.04,9.19,-0.04,0.02,-0.01,22.88
45686962.0,0.29,-0.03,9.23,-0.05,0.02,-0.01,22.98
45709962.0,0.29,-0.02,9.24,-0.04,0.02,-0.01,22.98
45732962.0,0.26,-0.03,9.19,-0.04,0.03,-0.01,22.93
45755962.0,0.27,-0.01,9.14,-0.04,0.03,-0.01,22.93
45778962.0,0.23,-0.02,9.22,-0.04,0.02,-0.01,22.93
45801962.0,0.3,-0.02,9.19,-0.04,0.03,-0.01,22.84
45824962.0,0.3,-0.09,9.26,-0.04,0.02,-0.01,22.98
45847962.0,0.23,-0.0,9.2,-0.04,0.03,-0.01,22.98
45870962.0,0.19,-0.08,9.22,-0.04,0.03,-0.01,22.98
45893962.0,0.25,-0.05,9.17,-0.04,0.02,-0.01,22.88
45916962.0,0.25,-0.02,9.13,-0.04,0.02,-0.01,22.98
45939962.0,0.25,-0.05,9.22,-0.04,0.02,-0.01,22.98
45962962.0,0.23,-0.03,9.14,-0.04,0.02,-0.01,22.93
45985962.0,0.33,-0.04,9.16,-0.04,0.03,-0.01,22.93
46008962.0,0.32,-0.04,9.19,-0.05,0.03,-0.01,22.98
46031962.0,0.22,-0.06,9.19,-0.04,0.03,-0.01,22.88
46054962.0,0.23,-0.05,9.15,-0.04,0.02,-0.01,22.98
46077962.0,0.25,-0.02,9.07,-0.04,0.02,-0.01,22.98
46100962.0,0.3,-0.06,9.22,-0.05,0.03,-0.01,22.93
46123962.0,0.33,-0.04,9.18,-0.04,0.02,-0.01,23.02
46146962.0,0.28,-0.06,9.18,-0.04,0.03,-0.01,22.93
46169962.0,0.24,-0.07,9.18,-0.04,0.03,-0.01,22.93
46192962.0,0.31,-0.09,9.24,-0.04,0.03,-0.01,22.88
46215962.0,0.26,-0.07,9.18,-0.04,0.02,-0.01,22.88
46238962.0,0.24,-0.08,9.24,-0.04,0.03,-0.01,22.98
46261962.0,0.24,-0.07,9.19,-0.04,0.02,-0.01,22.98
46284962.0,0.25,-0.04,9.19,-0.05,0.03,-0.01,23.02
46307962.0,0.29,-0.09,9.18,-0.04,0.03,-0.01,22.93
46330962.0,0.35,-0.08,9.16,-0.04,0.02,-0.01,22.93
46353962.0,0.23,-0.07,9.27,-0.04,0.02,-0.01,22.93
46376962.0,0.3,-0.0,9.14,-0.04,0.03,-0.01,22.98
46399962.0,0.28,-0.03,9.22,-0.04,0.03,-0.01,22.98
46422962.0,0.3,0.02,9.14,-0.05,0.03,-0.01,22.98
46445962.0,0.28,-0.1,9.16,-0.04,0.02,-0.01,22.98
46468962.0,0.33,-0.05,9.22,-0.05,0.02,-0.01,22.84
46491962.0,0.25,0.04,9.23,-0.04,0.02,-0.01,23.02
46514962.0,0.23,-0.02,9.18,-0.04,0.03,-0.01,22.93
46537962.0,0.25,-0.05,9.16,-0.04,0.02,-0.01,22.93
46560962.0,0.19,-0.06,9.07,-0.04,0.02,-0.01,23.07
46583962.0,0.25,-0.03,9.23,-0.04,0.02,-0.01,22.98
46606962.0,0.27,-0.09,9.17,-0.04,0.03,-0.01,22.98
46629962.0,0.29,-0.05,9.15,-0.04,0.02,-0.01,22.88
46652962.0,0.27,-0.08,9.18,-0.04,0.02,-0.01,22.98
46675962.0,0.26,-0.06,9.19,-0.04,0.02,-0.01,22.98
46698962.0,0.24,-0.01,9.16,-0.04,0.02,-0.01,22.93
46721962.0,0.32,-0.02,9.18,-0.04,0.02,-0.01,22.93
46744962.0,0.24,-0.07,9.22,-0.04,0.03,-0.01,22.98
46767962.0,0.28,-0.03,9.16,-0.04,0.02,-0.01,22.98
46790962.0,0.25,-0.01,9.22,-0.04,0.03,-0.01,22.88
46813962.0,0.29,-0.1,9.13,-0.04,0.03,-0.01,22.98
46836962.0,0.28,-0.06,9.19,-0.04,0.03,-0.01,22.93
46859962.0,0.33,-0.08,9.22,-0.04,0.02,-0.01,22.93
46882962.0,0.24,-0.11,9.19,-0.04,0.02,-0.01,23.02
46905962.0,0.27,-0.02,9.13,-0.04,0.02,-0.01,23.02
46928962.0,0.24,-0.01,9.14,-0.04,0.02,-0.01,22.98
46951962.0,0.28,-0.03,9.13,-0.04,0.03,-0.01,22.98
46974962.0,0.25,-0.03,9.24,-0.04,0.03,-0.01,22.98
46997962.0,0.25,-0.03,9.19,-0.04,0.03,-0.01,22.98
47020962.0,0.28,-0.02,9.21,-0.04,0.02,-0.01,22.93
47043962.0,0.28,0.0,9.24,-0.04,0.03,-0.01,22.93
47066962.0,0.24,-0.02,9.22,-0.04,0.03,-0.01,22.93
47089962.0,0.32,-0.08,9.18,-0.04,0.02,-0.01,22.93
47112962.0,0.3,-0.07,9.15,-0.04,0.03,-0.01,22.88
47135962.0,0.27,-0.05,9.19,-0.05,0.03,-0.01,22.88
47158962.0,0.25,-0.04,9.23,-0.04,0.03,-0.01,22.98
47181962.0,0.25,-0.06,9.3,-0.04,0.03,-0.01,22.98
47204962.0,0.25,-0.02,9.15,-0.04,0.02,-0.01,22.93
47227962.0,0.25,-0.09,9.16,-0.04,0.03,-0.01,22.93
47250962.0,0.27,-0.03,9.14,-0.04,0.03,-0.01,22.93
47273962.0,0.3,-0.11,9.22,-0.05,0.03,-0.01,23.02
47296962.0,0.29,-0.01,9.18,-0.04,0.02,-0.01,22.88
47319962.0,0.28,-0.05,9.07,-0.04,0.03,-0.01,22.98
47342962.0,0.28,-0.02,9.17,-0.04,0.03,-0.01,22.88
47365962.0,0.3,-0.0,9.23,-0.04,0.03,-0.01,22.98
47388962.0,0.28,-0.06,9.2,-0.04,0.03,-0.01,22.98
47411962.0,0.21,0.03,9.16,-0.04,0.03,-0.01,22.98
47434962.0,0.24,-0.07,9.21,-0.04,0.03,-0.01,22.93
47457962.0,0.26,-0.04,9.22,-0.04,0.02,-0.01,22.93
47480962.0,0.34,-0.05,9.2,-0.04,0.03,-0.01,22.98
47503962.0,0.24,0.01,9.19,-0.04,0.03,-0.01,22.98
47526962.0,0.29,-0.06,9.21,-0.04,0.03,-0.01,22.98
47549962.0,0.29,-0.09,9.19,-0.04,0.03,-0.01,22.98
47572962.0,0.27,-0.06,9.24,-0.04,0.02,-0.01,23.02
47595962.0,0.25,-0.0,9.17,-0.04,0.03,-0.01,23.02
47618962.0,0.27,-0.05,9.2,-0.05,0.02,-0.01,22.93
47641962.0,0.35,-0.03,9.2,-0.04,0.03,-0.01,22.93
47664962.0,0.27,-0.08,9.16,-0.04,0.03,-0.01,22.79
47687962.0,0.2,0.01,9.22,-0.04,0.02,-0.01,23.07
47710962.0,0.26,-0.03,9.18,-0.04,0.03,-0.01,22.98
47733962.0,0.26,-0.1,9.11,-0.04,0.03,-0.01,22.98
47756962.0,0.23,0.01,9.11,-0.04,0.03,-0.01,22.93
47779962.0,0.24,-0.05,9.27,-0.04,0.02,-0.01,23.02
47802962.0,0.27,-0.04,9.18,-0.04,0.03,-0.01,23.02
47825962.0,0.25,-0.05,9.19,-0.04,0.03,-0.01,23.02
47848962.0,0.23,0.0,9.22,-0.04,0.03,-0.01,23.07
