Time (us),AccelX (m/s^2),AccelY (m/s^2),AccelZ (m/s^2),GyroX (rad/s),GyroY (rad/s),GyroZ (rad/s),Temp (C)
1871968.0,0.39,-3.87,7.72,-8.73,-5.65,-0.33,24.58
1894968.0,2.78,-6.72,4.95,-8.73,-4.37,-0.39,24.67
1917968.0,3.94,-8.13,5.15,-5.84,-2.8,-0.76,24.62
1940968.0,3.43,-7.86,4.1,-3.47,-1.95,-0.88,24.72
1963968.0,3.12,-7.7,4.13,-1.37,-0.82,-0.63,24.72
1986968.0,3.13,-7.69,4.42,1.37,0.06,-0.53,24.62
2009968.0,2.41,-6.88,3.64,3.31,1.47,-0.28,24.67
2032968.0,2.43,-7.66,5.39,5.23,3.26,0.04,24.67
2055968.0,2.5,-7.77,6.78,6.51,4.4,-0.09,24.67
2078968.0,1.39,-5.3,8.43,6.49,4.74,-0.14,24.67
2101968.0,-0.35,-3.23,8.91,5.94,4.51,0.07,24.72
2124968.0,0.42,-4.53,9.57,6.01,4.71,0.01,24.62
2147968.0,-1.9,-1.5,11.16,4.1,4.07,-0.29,24.72
2170968.0,-3.42,1.42,11.13,2.1,2.37,0.05,24.72
2193968.0,-2.86,1.35,6.99,2.71,2.28,0.35,24.62
2216968.0,-3.16,1.8,4.01,5.27,4.42,0.69,24.58
2239968.0,-4.41,2.96,6.08,6.66,5.75,0.76,24.67
2262968.0,-5.23,3.43,9.13,5.32,5.26,0.54,24.58
2285968.0,-6.11,5.69,8.61,4.06,3.12,0.69,24.67
2308968.0,-5.62,5.07,5.01,3.99,2.55,0.95,24.62
2331968.0,-4.74,3.41,3.33,3.77,2.49,0.59,24.62
2354968.0,-5.22,4.86,4.31,1.98,1.4,0.22,24.72
2377968.0,-5.96,7.32,4.25,-0.09,-0.4,0.24,24.72
2400968.0,-5.82,5.59,4.6,-0.83,-1.24,0.41,24.67
2423968.0,-4.25,3.44,5.33,-1.48,-1.73,0.14,24.77
2446968.0,-4.23,3.37,7.24,-3.93,-2.82,-0.34,24.67
2469968.0,-5.07,4.97,7.56,-6.35,-4.07,-0.26,24.58
2492968.0,-4.94,4.81,7.29,-7.75,-4.85,-0.06,24.72
2515968.0,-3.56,1.31,8.02,-7.36,-4.51,-0.38,24.72
2538968.0,-2.77,-0.34,8.26,-7.15,-4.2,-0.73,24.62
2561968.0,-1.11,-2.63,10.13,-6.9,-3.63,-0.93,24.62
2584968.0,-0.84,-2.79,11.62,-6.58,-4.03,-1.07,24.62
2607968.0,-0.48,-3.04,10.22,-6.23,-4.26,-1.05,24.62
2630968.0,0.22,-4.0,8.44,-5.31,-3.88,-0.85,24.67
2653968.0,0.22,-3.87,7.0,-3.87,-3.07,-0.63,24.67
2676968.0,0.5,-4.07,4.96,-1.73,-1.82,-0.19,24.72
2699968.0,1.24,-4.88,4.46,0.67,0.05,0.23,24.72
2722968.0,1.75,-6.31,5.58,3.36,1.97,0.25,24.72
2745968.0,1.68,-6.62,7.69,4.93,2.97,0.04,24.72
2768968.0,0.98,-4.88,9.67,3.72,2.44,-0.0,24.67
2791968.0,0.4,-3.4,10.28,1.53,1.0,0.3,24.77
2814968.0,-0.75,-2.05,8.73,1.3,0.95,0.76,24.67
2837968.0,-0.34,-3.06,6.84,4.01,2.56,0.64,24.67
2860968.0,-1.75,-1.63,7.79,6.61,4.54,0.35,24.62
2883968.0,-2.51,-0.27,10.41,6.88,4.92,0.11,24.72
2906968.0,-3.71,2.77,10.79,6.11,4.34,0.37,24.62
2929968.0,-3.9,2.52,10.9,5.3,3.68,0.47,24.62
2952968.0,-4.02,3.21,9.42,4.0,2.63,0.4,24.72
2975968.0,-4.62,5.07,6.71,3.32,2.08,0.42,24.67
2998968.0,-4.39,4.78,5.96,3.58,2.39,0.5,24.67
3021968.0,-4.55,4.44,6.51,2.69,1.4,0.5,24.67
3044968.0,-4.73,5.22,4.13,2.15,1.29,0.52,24.67
3067968.0,-4.06,4.7,4.17,1.67,0.87,0.24,24.72
3090968.0,-4.61,5.78,5.07,0.73,0.21,0.14,24.62
3113968.0,-4.21,5.05,6.23,-0.52,-0.54,0.05,24.72
3136968.0,-3.82,5.05,6.33,-3.52,-2.45,-0.08,24.62
3159968.0,-4.77,5.53,5.85,-5.47,-3.84,0.0,24.77
3182968.0,-4.34,3.97,6.33,-5.78,-3.77,0.2,24.77
3205968.0,-2.86,3.96,8.0,-4.62,-3.25,0.15,24.67
3228968.0,-2.83,2.87,8.08,-4.49,-3.57,0.21,24.67
3251968.0,-0.98,-0.07,6.62,-5.39,-3.14,0.23,24.81
3274968.0,0.1,-1.3,10.23,-6.37,-3.02,-0.2,24.72
3297968.0,-0.14,-1.89,10.15,-6.3,-3.93,-0.6,24.72
3320968.0,-0.2,-2.05,8.45,-5.35,-3.63,-0.65,24.72
3343968.0,0.31,-3.49,7.16,-4.34,-3.0,-0.49,24.62
3366968.0,1.44,-4.58,7.59,-4.7,-2.52,-0.2,24.72
3389968.0,2.55,-6.48,9.56,-4.15,-2.51,-0.37,24.67
3412968.0,2.88,-7.0,8.81,-3.22,-2.43,-0.49,24.58
3435968.0,2.25,-6.56,6.92,-2.54,-2.07,-0.33,24.72
3458968.0,2.95,-8.44,5.54,-2.57,-1.41,0.22,24.62
3481968.0,2.01,-8.01,4.56,-2.37,-0.84,0.43,24.62
3504968.0,3.77,-5.79,5.98,-1.09,-0.33,0.71,24.62
3527968.0,3.59,-7.9,3.83,0.11,0.37,0.5,24.77
3550968.0,2.18,-6.91,4.21,0.25,1.11,0.44,24.77
3573968.0,2.45,-4.99,5.05,1.15,1.42,0.75,24.67
3596968.0,2.16,-4.76,4.78,2.7,2.45,1.15,24.67
3619968.0,1.56,-7.05,6.61,4.6,4.4,1.43,24.62
3642968.0,1.97,-8.42,7.47,5.01,4.44,1.17,24.72
3665968.0,0.9,-6.12,8.55,3.12,2.44,0.74,24.62
3688968.0,0.05,-3.09,8.18,2.22,2.01,0.84,24.81
3711968.0,-0.36,-2.76,8.73,3.97,2.43,1.33,24.72
3734968.0,-1.04,-3.95,10.46,5.85,3.01,1.33,24.58
3757968.0,-2.48,-0.89,9.8,5.6,2.37,0.99,24.67
3780968.0,-3.72,2.24,9.64,4.46,1.83,1.12,24.67
3803968.0,-4.29,3.91,8.68,3.94,1.43,1.52,24.67
3826968.0,-4.58,4.4,8.18,3.58,1.36,1.98,24.72
3849968.0,-2.34,0.54,11.67,2.65,1.21,1.56,24.72
3872968.0,-1.11,1.36,12.15,0.51,-0.38,0.85,24.72
3895968.0,-0.33,1.79,11.6,-1.87,-1.55,0.5,24.72
3918968.0,0.68,0.93,10.89,-2.53,-1.99,0.28,24.67
3941968.0,1.81,-0.94,11.01,-1.58,-1.88,-0.05,24.67
3964968.0,2.17,-1.8,11.92,-1.04,-2.03,-0.75,24.67
3987968.0,1.37,-1.06,11.77,-1.56,-2.79,-1.53,24.58
4010968.0,0.47,0.89,9.82,-2.66,-3.58,-1.82,24.72
4033968.0,1.51,2.17,7.83,-3.36,-2.91,-1.94,24.72
4056968.0,-0.75,-0.65,10.2,-3.04,-2.03,-1.6,24.72
4079968.0,0.42,-1.63,10.29,-3.21,-2.62,-1.48,24.72
4102968.0,0.8,-2.36,8.58,-3.59,-2.63,-1.49,24.72
4125968.0,1.08,-2.12,8.22,-3.51,-2.29,-1.51,24.72
4148968.0,0.88,-2.68,8.52,-3.1,-1.77,-1.37,24.67
4171968.0,0.93,-5.25,8.26,-1.8,-0.86,-1.2,24.67
4194968.0,0.97,-4.85,7.85,-1.22,-0.91,-1.31,24.72
4217968.0,-0.28,-3.37,8.11,-0.46,-0.45,-1.16,24.62
4240968.0,-1.26,-0.99,7.64,0.72,0.14,-0.4,24.72
4263968.0,-1.11,-2.69,6.81,2.22,1.16,0.32,24.72
4286968.0,-0.07,-4.07,7.24,3.16,2.68,0.31,24.67
4309968.0,-2.33,-2.94,8.76,2.05,2.36,0.21,24.77
4332968.0,-2.15,-2.15,7.92,1.92,2.01,0.58,24.67
4355968.0,-2.17,-3.14,7.42,2.88,2.63,1.03,24.77
4378968.0,-2.27,-2.06,9.45,1.88,2.91,0.87,24.72
4401968.0,-3.1,-1.95,10.48,0.03,1.15,0.73,24.72
4424968.0,-2.2,-1.64,9.19,0.19,0.65,0.82,24.72
4447968.0,-2.23,-1.55,8.71,1.66,1.32,1.14,24.72
4470968.0,-1.57,-1.86,8.52,2.9,1.95,1.33,24.72
4493968.0,-1.86,-0.93,10.72,3.65,2.2,1.34,24.67
4516968.0,-3.01,1.02,12.64,4.59,1.93,1.68,24.67
4539968.0,-2.01,1.36,8.98,5.64,2.06,2.06,24.77
4562968.0,-1.51,2.5,6.52,6.93,3.05,2.1,24.67
4585968.0,-1.89,5.49,6.57,7.39,3.6,1.87,24.81
4608968.0,-2.38,7.4,5.74,6.26,3.21,1.81,24.81
4631968.0,-2.02,7.76,4.67,3.91,2.58,1.67,24.72
4654968.0,-1.43,6.19,4.07,1.15,1.71,1.22,24.62
4677968.0,-1.17,6.6,3.98,-1.21,1.01,0.77,24.77
4700968.0,-0.95,6.84,3.64,-1.32,0.76,0.72,24.67
4723968.0,-1.17,6.32,3.45,-1.01,1.16,0.8,24.77
4746968.0,-1.58,5.34,3.92,-1.55,1.44,1.07,24.58
4769968.0,-1.75,5.13,4.14,-3.12,1.36,1.38,24.72
4792968.0,3.41,4.4,4.46,-4.52,2.01,0.66,24.62
4815968.0,0.18,3.67,6.74,-5.51,2.47,-0.16,24.62
4838968.0,0.74,1.5,6.74,-6.1,2.17,-0.96,24.62
4861968.0,-0.02,0.62,7.59,-6.33,1.34,-1.57,24.72
4884968.0,-2.29,0.71,12.12,-5.21,1.3,-1.55,24.72
4907968.0,-1.41,-0.08,10.68,-4.43,0.43,-1.47,24.67
4930968.0,-1.2,-2.13,9.33,-5.26,0.11,-2.14,24.67
4953968.0,-1.53,-5.31,11.27,-6.11,-0.12,-2.94,24.72
4976968.0,-2.26,-4.83,13.04,-6.11,-0.94,-3.45,24.72
4999968.0,-1.77,-4.84,10.7,-5.02,-1.42,-3.12,24.62
5022968.0,0.96,-7.3,9.2,-3.66,-1.4,-2.67,24.72
5045968.0,0.65,-6.29,10.27,-3.04,-1.51,-2.65,24.48
5068968.0,0.4,-5.06,9.72,-3.57,-1.9,-2.3,24.67
5091968.0,2.26,-7.85,6.11,-4.24,-1.99,-1.86,24.58
5114968.0,7.16,-6.86,0.83,-5.02,-1.81,-2.3,24.67
5137968.0,2.88,-11.54,4.43,-5.23,2.49,-3.04,24.72
5160968.0,-5.01,-19.42,8.18,-3.26,5.11,-2.05,24.62
5183968.0,3.56,-12.17,9.33,-0.58,0.93,-0.59,24.62
5206968.0,2.07,-11.12,4.55,0.62,0.02,-0.43,24.62
5229968.0,1.15,-9.68,5.78,0.61,0.28,-0.93,24.72
5252968.0,0.49,-9.66,4.27,1.29,0.59,-0.66,24.67
5275968.0,1.0,-9.81,4.64,1.44,0.83,-0.7,24.67
5298968.0,1.28,-10.27,6.45,1.67,0.19,-1.16,24.67
5321968.0,0.36,-8.28,4.26,1.7,0.24,-1.21,24.67
5344968.0,0.21,-7.44,4.24,1.67,0.19,-0.97,24.62
5367968.0,0.29,-8.04,3.24,1.53,0.19,-0.85,24.62
5390968.0,0.37,-7.96,4.53,2.05,0.44,-0.67,24.62
5413968.0,0.26,-7.26,3.49,2.52,0.9,-0.49,24.72
5436968.0,-0.71,-6.43,4.6,2.6,1.12,-0.42,24.67
5459968.0,-0.97,-6.57,5.05,3.56,1.54,-0.13,24.67
5482968.0,-1.41,-7.26,5.97,5.28,2.98,0.14,24.67
5505968.0,-3.86,-4.43,7.14,5.43,3.92,0.05,24.67
5528967.0,-5.52,-2.76,9.86,4.29,2.9,0.01,24.53
5551968.0,-5.95,-2.38,10.9,4.54,2.41,0.4,24.72
5574968.0,-7.65,-3.39,10.81,3.73,-0.43,0.22,24.72
5597968.0,0.78,1.25,13.31,2.74,0.67,0.11,24.62
5620968.0,-7.97,1.89,6.65,2.81,3.06,0.4,24.72
5643968.0,-7.45,0.35,9.25,3.31,2.24,0.95,24.62
5666968.0,-7.66,0.83,8.51,2.28,2.06,0.67,24.67
5689968.0,-8.69,2.16,8.06,0.06,0.36,0.39,24.77
5712968.0,-7.76,2.19,5.79,-0.04,-0.18,0.8,24.72
5735968.0,-6.62,1.27,4.6,1.3,1.43,1.49,24.62
5758968.0,-5.19,1.09,5.47,2.05,3.32,1.42,24.62
5781968.0,-7.56,1.13,6.12,0.35,3.48,0.9,24.72
5804968.0,-7.5,-0.14,7.22,-0.27,1.56,0.74,24.67
5827968.0,-6.78,-0.71,6.01,-0.47,0.5,0.43,24.67
5850968.0,-5.44,-0.45,6.0,-1.75,0.8,-0.48,24.67
5873968.0,-5.04,0.24,6.15,-2.27,-0.78,-1.13,24.67
5896968.0,-5.96,1.47,5.26,-2.18,-1.03,-0.75,24.62
5919968.0,-5.74,0.48,6.55,-2.4,-0.84,-0.65,24.62
5942968.0,-4.07,-1.38,6.0,-2.16,-1.02,-0.67,24.72
5965968.0,-4.2,-1.22,6.44,-1.61,-0.77,-0.49,24.72
5988968.0,-5.04,-0.59,7.32,-1.39,-0.62,-0.23,24.72
6011968.0,-4.85,-1.32,7.65,-1.53,-0.61,-0.28,24.58
6034968.0,-3.98,-1.48,6.94,-1.59,-1.21,-0.26,24.77
6057968.0,-4.07,-1.62,7.93,-1.09,-1.02,0.11,24.77
6080968.0,-4.12,-1.15,7.72,-1.39,-1.68,0.06,24.77
6103968.0,-2.69,-2.14,7.66,-1.69,-1.96,0.1,24.62
6126968.0,-1.43,-2.81,8.18,-1.65,-2.0,0.3,24.72
6149968.0,-0.57,-2.23,7.56,-1.35,-1.79,0.56,24.72
6172968.0,-0.02,-2.16,7.79,-1.72,-1.83,0.59,24.62
6195968.0,0.74,-3.87,8.71,-2.37,-2.42,0.44,24.67
6218968.0,1.87,-6.03,9.17,-2.81,-3.56,0.08,24.67
6241968.0,4.91,-6.7,6.39,-2.7,-3.7,-0.13,24.77
6264968.0,5.52,-3.97,4.94,-2.28,-3.13,0.15,24.67
6287968.0,5.17,-5.27,6.03,-0.6,-1.58,1.3,24.62
6310968.0,4.04,-6.63,11.72,-0.01,-1.18,0.67,24.72
6333967.0,6.5,-5.56,5.13,-0.47,-2.38,0.08,24.53
6356967.0,7.21,-4.28,4.6,0.94,-0.47,1.03,24.53
6379968.0,7.84,-5.18,4.48,3.65,2.23,2.37,24.62
6402968.0,6.14,-10.28,10.86,4.88,4.87,1.73,24.62
6425968.0,1.53,-3.4,13.05,3.51,2.34,-0.47,24.67
6448968.0,0.46,2.59,5.83,0.59,1.07,-1.42,24.77
6471968.0,-0.51,0.84,7.25,-1.66,1.54,-1.26,24.72
6494968.0,-0.3,-3.85,13.69,-1.71,1.92,-1.44,24.72
6517968.0,0.09,-4.61,11.35,-2.35,0.07,-2.47,24.62
6540968.0,1.96,-2.9,5.97,-2.86,-0.22,-3.25,24.72
6563968.0,1.0,-1.87,5.7,-3.48,0.71,-3.01,24.67
6586968.0,0.66,-3.7,8.68,-2.54,1.66,-2.15,24.67
6609968.0,1.18,-5.04,7.24,-1.73,1.69,-1.79,24.67
6632968.0,0.56,-2.99,5.21,-0.71,2.16,-1.24,24.67
6655968.0,-2.17,-1.19,8.5,1.85,3.85,0.8,24.62
6678968.0,-4.21,1.59,10.42,4.93,4.59,3.27,24.62
6701968.0,-5.43,-3.05,10.23,5.99,5.07,4.73,24.62
6724968.0,-5.88,-3.86,11.08,6.29,4.9,4.46,24.72
6747968.0,-6.12,-1.79,10.53,5.54,3.74,3.75,24.72
6770968.0,-7.33,-0.93,10.86,5.05,2.76,3.2,24.67
6793968.0,-7.85,-2.09,11.37,2.3,1.13,1.15,24.58
6816968.0,-6.66,-2.31,9.63,-0.6,-2.62,-1.33,24.67
6839968.0,-7.55,-0.88,9.12,-3.07,-4.63,-3.9,24.67
6862968.0,-8.65,1.33,7.66,-5.69,-6.14,-5.95,24.72
6885968.0,-8.24,2.07,7.46,-5.74,-5.76,-5.72,24.62
6908968.0,-5.37,0.18,5.69,-4.68,-4.84,-4.33,24.62
6931968.0,-1.97,-1.45,4.89,-3.86,-3.36,-3.3,24.81
6954968.0,0.26,-2.25,3.82,-1.64,-1.9,-1.39,24.67
6977968.0,0.71,-3.07,4.16,0.58,0.6,0.77,24.67
7000968.0,-1.58,-5.22,7.61,2.82,2.79,2.63,24.67
7023968.0,-4.19,-5.8,8.33,2.27,3.33,2.61,24.67
7046968.0,-6.05,-4.43,9.44,1.69,1.99,2.55,24.62
7069967.0,-7.3,-2.36,8.69,3.41,2.54,3.69,24.53
7092968.0,-7.98,-1.62,6.87,5.86,3.96,5.23,24.62
7115968.0,-10.22,0.12,8.26,7.18,4.97,5.5,24.72
7138968.0,-12.35,2.13,6.0,3.84,2.25,3.2,24.62
7161968.0,-9.72,4.54,2.3,2.15,1.25,2.38,24.62
7184968.0,-10.5,5.13,3.66,2.76,1.99,3.25,24.67
7207968.0,-10.68,4.89,4.0,2.0,1.26,2.83,24.67
7230968.0,-8.68,4.35,1.97,0.2,0.08,1.58,24.62
7253968.0,-7.09,5.23,-0.46,-0.38,-0.12,1.38,24.72
7276968.0,-6.79,5.39,0.36,1.76,1.8,2.76,24.62
7299968.0,-6.68,4.73,0.99,1.01,1.91,2.14,24.72
7322968.0,-5.89,5.57,-2.04,-2.86,0.21,0.02,24.67
7345968.0,-5.52,3.52,0.26,-4.82,0.32,-1.21,24.58
7368968.0,-9.17,2.79,6.51,-5.16,1.3,-1.42,24.67
7391968.0,-8.88,2.77,7.85,-4.98,0.59,-1.63,24.58
7414968.0,-6.84,1.35,5.75,-5.55,-1.25,-2.4,24.72
7437968.0,-6.21,-1.99,6.15,-5.83,-1.45,-3.38,24.72
7460968.0,-5.26,-5.8,7.48,-5.95,-2.1,-5.11,24.81
7483968.0,-4.7,-6.62,6.91,-5.33,-2.88,-5.83,24.62
7506968.0,-3.8,-6.93,6.79,-3.66,-2.34,-4.94,24.62
7529968.0,-5.18,-4.94,8.87,-1.17,-1.52,-3.01,24.58
7552968.0,-4.97,-2.73,5.86,1.55,-0.79,-0.28,24.67
7575968.0,-2.62,-2.72,3.7,2.68,0.11,1.73,24.67
7598968.0,-2.75,-2.89,5.03,2.96,1.1,2.74,24.77
7621968.0,-2.2,-2.02,5.43,4.16,1.38,4.17,24.72
7644968.0,-1.32,-1.29,4.35,6.37,3.49,6.03,24.72
7667968.0,-3.27,-1.25,6.22,6.65,4.23,6.19,24.62
7690968.0,-3.9,0.63,7.19,4.48,3.3,4.37,24.72
7713968.0,-4.34,2.38,5.99,1.3,1.57,2.39,24.67
7736968.0,-3.46,0.29,6.63,-1.56,0.8,0.64,24.67
7759968.0,-2.54,-1.43,6.86,-5.41,-0.59,-2.29,24.77
7782968.0,-3.0,-3.56,10.97,-8.25,-1.8,-5.21,24.67
7805968.0,-2.2,-3.75,9.97,-8.73,-3.82,-7.17,24.72
7828968.0,-1.28,-2.53,8.32,-8.73,-3.91,-7.39,24.72
7851968.0,0.78,-1.26,6.26,-6.89,-2.95,-5.12,24.62
7874968.0,1.32,-1.77,4.26,-3.62,-0.99,-1.75,24.72
7897968.0,1.35,-4.43,4.15,0.07,1.89,1.75,24.62
7920968.0,-0.99,-5.15,8.54,2.86,4.03,4.16,24.72
7943968.0,-3.53,-5.08,9.85,5.49,4.74,5.72,24.67
7966968.0,-5.85,-3.2,10.32,5.87,5.14,5.51,24.67
7989968.0,-9.43,1.65,10.94,5.31,5.07,5.29,24.72
8012968.0,-10.24,5.49,9.81,6.92,5.02,6.71,24.72
8035968.0,-9.5,4.28,7.9,7.72,5.16,6.83,24.72
8058968.0,-9.17,0.15,9.54,1.4,2.43,0.96,24.72
8081968.0,-8.75,-2.62,11.37,-7.59,-3.55,-6.16,24.77
8104968.0,-13.55,-3.02,10.18,-8.73,-3.72,-8.73,24.58
8127968.0,-16.98,1.69,16.28,-8.03,-1.74,-8.73,24.67
8150968.0,-12.28,-1.33,11.63,-3.18,-3.29,-5.28,24.58
8173968.0,-8.59,-9.68,8.58,-0.48,-1.12,-2.62,24.62
8196968.0,-8.01,-13.22,11.91,1.7,-0.89,-1.68,24.62
8219968.0,-7.97,-11.8,9.6,3.33,-1.49,-0.8,24.62
8242968.0,-6.62,-12.28,8.8,4.7,-0.74,0.01,24.72
8265968.0,-6.11,-10.31,7.69,5.43,-2.14,0.27,24.62
8288968.0,-5.06,-10.23,5.67,5.29,-1.81,0.35,24.67
8311968.0,-5.2,-10.09,7.37,5.43,-1.81,0.09,24.58
8334968.0,-4.0,-6.37,3.75,5.45,-2.59,-0.13,24.67
8357968.0,-3.36,-2.46,2.78,4.55,-2.61,-0.29,24.58
8380968.0,-1.33,-2.05,1.95,3.66,-2.54,-0.42,24.72
8403968.0,-0.92,-0.58,0.74,3.01,-2.38,-0.81,24.62
8426968.0,-0.41,2.2,-0.55,1.47,-2.49,-1.5,24.62
8449968.0,1.57,3.25,-4.18,0.16,-1.97,-1.66,24.72
8472968.0,0.91,4.75,-6.18,-1.76,-0.53,-1.62,24.67
8495968.0,-3.25,4.24,-2.73,-3.84,0.83,-1.34,24.58
8518968.0,-5.26,0.03,2.07,-5.5,0.6,-1.74,24.67
8541968.0,-2.91,-2.17,3.66,-5.72,-0.55,-2.46,24.58
8564968.0,-0.95,-1.17,1.75,-4.9,-0.2,-2.0,24.62
8587968.0,-3.25,0.54,1.43,-3.35,1.05,-0.1,24.62
8610968.0,-4.2,-3.62,4.37,-2.96,2.0,0.51,24.62
8633968.0,-1.7,-6.03,2.39,-2.56,0.97,-0.02,24.72
8656968.0,-2.88,-7.47,6.93,-2.87,1.74,-0.87,24.62
8679968.0,-3.38,-6.07,5.44,-3.18,0.65,-1.4,24.62
8702968.0,-3.0,-4.49,6.98,-2.66,1.27,-0.62,24.67
8725968.0,0.15,-7.13,5.71,0.67,1.77,1.38,24.67
8748968.0,-3.38,-8.8,3.95,4.14,4.26,3.28,24.62
8771968.0,-11.23,-4.99,12.81,4.98,5.62,3.59,24.72
8794968.0,-10.77,-2.62,11.6,4.61,3.41,4.1,24.62
8817968.0,-8.49,-4.93,11.04,4.89,3.47,3.89,24.62
8840968.0,-8.78,-4.17,11.92,2.96,2.45,1.36,24.67
8863968.0,-11.03,-0.78,13.18,0.72,-0.57,-0.55,24.58
8886968.0,-10.43,1.99,8.6,-1.16,-2.19,-1.09,24.67
8909968.0,-8.9,-0.08,8.85,-3.07,-1.4,-1.17,24.58
8932968.0,-7.98,-3.21,7.97,-4.67,-0.94,-2.41,24.62
8955968.0,-8.14,-4.3,10.28,-5.94,-1.17,-4.09,24.62
8978968.0,-7.73,-5.08,10.48,-5.72,-2.27,-4.69,24.72
9001968.0,-5.5,-5.42,9.41,-3.91,-2.73,-4.08,24.62
9024968.0,-3.9,-5.62,8.21,-1.58,-2.0,-1.66,24.58
9047968.0,-6.73,-9.02,9.01,-0.47,-0.88,-0.0,24.77
9070968.0,-7.71,-14.12,12.79,0.99,-0.22,0.95,24.67
9093968.0,-4.09,-16.32,12.86,2.27,-0.41,0.58,24.67
9116968.0,-4.76,-12.12,9.65,3.31,-1.08,0.63,24.67
9139968.0,-5.65,-8.84,9.07,4.58,-0.47,1.88,24.62
9162968.0,-5.85,-8.4,7.13,5.88,0.58,3.47,24.62
9185968.0,-5.63,-6.49,7.24,5.98,1.12,3.91,24.62
9208968.0,-3.9,-4.76,7.08,4.89,-0.71,3.1,24.62
9231968.0,-2.2,-1.5,3.61,4.37,-1.31,2.88,24.58
9254968.0,-1.43,-1.88,2.28,4.03,-0.17,3.16,24.58
9277968.0,-2.82,-1.99,4.65,1.51,-0.03,1.05,24.58
9300968.0,-0.06,-0.72,3.65,-2.09,-2.92,-2.04,24.67
9323968.0,-0.44,-3.0,-0.14,-5.56,-2.68,-4.62,24.62
9346968.0,-3.53,-3.45,2.28,-7.22,-0.98,-6.21,24.62
9369968.0,-3.59,-2.34,7.05,-5.87,-1.49,-6.21,24.62
9392968.0,-0.8,1.94,6.06,-2.27,-2.94,-3.08,24.62
9415968.0,0.8,2.45,0.44,0.58,-0.71,0.18,24.72
9438968.0,-0.28,0.57,2.4,2.28,1.86,2.53,24.58
9461968.0,-2.23,-0.95,3.59,2.86,2.09,3.27,24.58
9484968.0,-2.78,-0.81,5.64,2.58,1.82,2.71,24.58
9507968.0,-2.08,0.44,4.59,2.98,1.18,2.96,24.62
9530968.0,-0.77,0.37,2.43,2.51,0.85,2.51,24.62
9553968.0,-2.43,-0.19,2.93,0.36,0.85,0.51,24.62
9576967.0,-1.97,-0.07,3.85,-2.88,-0.14,-1.62,24.53
9599968.0,-3.59,-1.44,7.12,-4.86,-0.55,-2.43,24.67
9622968.0,-2.5,-4.7,6.54,-6.5,-0.71,-3.27,24.58
9645968.0,-3.48,-5.06,7.65,-7.05,-0.24,-4.01,24.58
9668968.0,-2.0,-2.61,10.16,-5.02,-0.91,-2.71,24.58
9691968.0,2.05,-6.0,6.45,-0.98,-0.8,0.42,24.62
9714967.0,0.78,-8.34,4.02,2.28,1.9,3.12,24.53
9737968.0,-4.0,-7.54,8.4,2.88,3.7,3.48,24.72
9760968.0,-6.07,-7.94,11.63,2.66,2.34,3.16,24.62
9783968.0,-3.43,-9.72,10.27,2.15,1.74,2.03,24.58
9806968.0,-4.24,-8.34,10.2,1.34,1.2,-0.02,24.58
9829968.0,-7.2,-5.29,10.03,-0.07,1.13,-1.52,24.58
9852968.0,-8.03,-3.61,10.36,-1.07,0.8,-1.66,24.58
9875968.0,-6.13,-5.9,11.24,-1.92,0.16,-1.68,24.67
9898968.0,-4.45,-7.93,8.66,-3.09,-0.16,-2.55,24.62
9921968.0,-5.16,-5.96,8.81,-2.97,0.31,-2.45,24.62
9944967.0,-6.35,-3.78,10.05,-1.53,0.29,-0.87,24.53
9967968.0,-4.86,-4.99,7.36,1.0,0.72,1.74,24.62
9990968.0,-7.34,-5.12,8.33,2.54,1.91,3.5,24.67
10013968.0,-8.29,-6.78,9.49,2.67,1.58,3.54,24.48
10036968.0,-8.54,-7.55,9.87,2.03,0.55,2.3,24.58
10059968.0,-10.19,-6.24,10.58,0.64,-0.64,0.53,24.67
10082968.0,-9.41,-5.16,8.94,-0.26,-2.18,-0.36,24.62
10105968.0,-7.43,-4.99,5.42,-1.48,-2.35,-1.2,24.62
10128968.0,-7.38,-5.21,4.63,-2.74,-1.36,-1.95,24.62
10151967.0,-8.53,-7.38,6.35,-3.42,-0.53,-3.17,24.53
10174968.0,-6.38,-8.14,5.7,-2.38,-1.15,-3.61,24.62
10197968.0,-2.39,-6.41,4.7,-0.23,-1.63,-1.76,24.67
10220968.0,-2.8,-6.61,2.88,1.55,-1.16,0.3,24.58
10243968.0,-4.04,-7.04,3.74,2.37,-0.44,1.58,24.58
10266968.0,-5.9,-7.66,4.87,3.11,-0.32,2.22,24.62
10289968.0,-5.7,-7.41,4.43,3.6,-0.18,2.09,24.62
10312967.0,-5.6,-5.29,4.06,3.1,-0.24,1.57,24.53
10335968.0,-4.73,-5.41,4.69,2.92,-0.06,1.42,24.62
10358968.0,-3.72,-4.12,4.42,2.5,-0.33,0.85,24.67
10381968.0,-5.37,-1.07,4.25,1.77,-0.63,0.36,24.58
10404968.0,-4.36,0.53,4.53,1.15,-0.72,0.6,24.67
10427968.0,-1.95,0.18,3.73,0.71,-1.05,1.11,24.58
10450968.0,-0.06,-0.13,3.73,0.65,-0.4,1.38,24.62
10473968.0,0.55,0.0,4.59,0.55,-0.07,1.5,24.62
10496968.0,0.18,0.48,5.54,0.16,0.2,1.26,24.72
10519967.0,0.04,1.43,7.1,-0.13,-0.03,1.25,24.53
10542968.0,2.06,-0.15,8.54,-0.53,-0.9,0.93,24.67
10565968.0,7.12,-1.48,6.76,-0.52,-1.9,0.78,24.67
10588968.0,9.17,-0.62,4.47,-0.61,-1.86,0.73,24.58
10611968.0,6.58,-1.44,5.9,-0.77,-0.51,0.47,24.58
10634968.0,3.22,-1.62,9.36,-0.66,0.76,0.15,24.62
10657968.0,0.37,-0.91,11.66,-0.48,0.93,-0.03,24.62
10680967.0,-1.14,0.36,12.63,-0.57,0.47,-0.19,24.53
10703968.0,-0.27,-0.93,12.1,-0.7,-0.1,-0.34,24.62
10726967.0,0.28,-2.97,11.63,-0.59,-0.19,-0.55,24.53
10749968.0,0.03,-2.65,10.14,-0.41,-0.25,-0.6,24.58
10772968.0,-0.79,-2.56,10.15,-0.22,0.2,-0.48,24.58
10795968.0,-1.42,-2.35,11.32,0.06,0.73,-0.42,24.67
10818968.0,-0.76,-2.66,10.42,-0.07,0.38,-0.56,24.58
10841968.0,0.43,-2.52,8.27,0.0,0.68,-0.54,24.62
10864968.0,-0.8,-1.64,9.03,0.28,1.39,-0.42,24.62
10887968.0,-1.62,-2.24,10.43,-0.25,0.31,-0.69,24.62
10910968.0,0.17,-4.3,8.45,-1.04,-0.37,-1.31,24.62
10933967.0,-0.25,-4.61,7.46,-0.86,0.19,-1.46,24.53
10956968.0,-3.39,-4.07,11.32,0.19,1.86,-1.16,24.58
10979968.0,-4.23,-3.77,11.04,0.1,1.1,-1.38,24.67
11002968.0,-3.8,-4.03,8.29,0.02,0.69,-1.46,24.67
11025968.0,-4.69,-3.04,7.9,0.31,0.84,-1.26,24.62
11048967.0,-6.29,-2.34,9.54,0.32,0.85,-1.08,24.53
11071968.0,2.01,-10.94,7.89,1.13,-1.11,0.3,24.62
11094967.0,-3.76,-0.58,3.32,0.26,-0.56,-0.53,24.53
11117968.0,-5.93,-2.41,7.3,0.51,0.68,-0.6,24.58
11140968.0,-6.82,-3.5,8.91,0.38,0.4,-0.58,24.58
11163968.0,-6.45,-2.65,6.61,0.42,-0.1,-0.47,24.58
11186968.0,-7.24,-2.48,6.82,0.23,0.55,-0.33,24.58
11209968.0,-7.91,-2.07,7.57,0.14,-0.12,-0.18,24.62
11232967.0,-6.95,-3.02,7.53,0.2,-0.67,-0.3,24.53
11255967.0,-6.67,-2.33,6.7,0.33,-0.92,-0.27,24.53
11278968.0,-6.56,-1.98,6.56,0.38,-0.43,-0.08,24.62
11301968.0,-6.86,-1.57,6.53,0.56,0.02,0.4,24.58
11324968.0,-6.69,-2.51,8.09,0.56,0.18,0.49,24.67
11347968.0,-6.34,-2.19,8.02,0.28,-0.16,0.34,24.58
11370968.0,-6.47,-1.26,7.99,0.26,-0.12,0.53,24.77
11393967.0,-6.86,-1.09,8.39,0.15,-0.19,0.87,24.53
11416967.0,-6.52,-2.06,8.9,0.22,-0.15,1.11,24.53
11439967.0,-6.89,-1.98,9.88,0.11,-0.5,1.15,24.53
11462968.0,-4.81,-2.41,8.46,0.08,-0.51,1.15,24.62
11485967.0,-4.14,-1.97,7.15,0.13,-0.1,1.23,24.53
11508968.0,-4.25,-2.52,7.89,0.08,0.11,1.3,24.58
11531968.0,-4.24,-3.02,8.34,0.1,0.1,1.25,24.58
11554968.0,-4.04,-2.38,8.84,-0.14,-0.07,1.06,24.58
11577968.0,-2.76,-2.02,7.78,-0.37,-0.33,0.93,24.58
11600967.0,-2.11,-1.77,6.53,-0.32,-0.37,0.98,24.53
11623968.0,-1.49,-1.85,6.66,-0.43,-0.1,1.01,24.62
11646968.0,-1.91,-1.7,8.88,-0.37,-0.12,1.16,24.62
11669967.0,-0.69,-2.47,7.67,-0.4,-0.27,1.12,24.53
11692968.0,0.05,-2.13,7.28,-0.47,-0.24,0.92,24.62
11715968.0,0.25,-0.75,8.16,-0.46,-0.42,0.93,24.58
11738968.0,1.62,-0.85,7.5,-0.57,-0.7,0.96,24.58
11761968.0,2.65,-1.47,8.1,-0.67,-0.79,0.85,24.58
11784968.0,3.36,-1.82,8.67,-0.7,-0.72,0.59,24.72
11807968.0,3.67,-1.69,8.51,-0.69,-0.66,0.38,24.62
11830967.0,3.1,-1.07,9.84,-0.7,-0.5,0.19,24.53
11853968.0,3.0,-1.19,10.43,-0.73,-0.66,0.06,24.72
11876968.0,3.12,-1.63,10.61,-0.69,-0.6,-0.06,24.58
11899968.0,2.93,-1.58,10.46,-0.51,-0.29,-0.22,24.58
11922968.0,1.91,-1.19,10.82,-0.43,-0.03,-0.27,24.58
11945968.0,0.83,-0.6,12.19,-0.22,-0.02,-0.17,24.48
11968968.0,1.14,-1.45,12.2,-0.28,-0.4,-0.33,24.72
11991968.0,1.52,-2.36,11.97,-0.18,-0.66,-0.57,24.62
12014968.0,1.41,-2.52,12.32,0.15,-0.79,-0.68,24.62
12037968.0,0.99,-2.91,13.32,0.17,-1.18,-0.82,24.62
12060968.0,1.93,-3.34,12.79,0.07,-1.53,-1.05,24.58
12083968.0,2.0,-3.39,12.44,0.22,-1.24,-1.14,24.58
12106968.0,0.95,-2.86,13.1,0.61,-0.69,-0.91,24.58
12129968.0,0.49,-2.79,14.82,0.81,-0.5,-0.6,24.58
12152968.0,1.14,-3.88,14.39,0.84,-0.76,-0.56,24.62
12175968.0,1.89,-5.15,13.04,0.9,-0.9,-0.76,24.62
12198967.0,0.83,-4.43,12.18,1.19,-0.77,-0.93,24.53
12221967.0,0.03,-3.05,11.44,1.62,-0.75,-0.76,24.53
12244968.0,0.08,-2.99,9.21,1.38,-0.81,-0.86,24.58
12267968.0,0.19,-2.02,6.91,1.08,-0.75,-1.09,24.67
12290968.0,0.07,0.19,4.53,1.05,-0.44,-1.09,24.58
12313968.0,-0.43,1.85,3.71,1.27,0.12,-0.63,24.58
12336968.0,-0.41,1.98,3.3,1.35,0.33,-0.11,24.58
12359967.0,-0.23,1.6,2.23,0.85,0.27,-0.12,24.53
12382967.0,-0.46,1.59,1.63,0.43,0.51,-0.19,24.53
12405967.0,-0.87,1.64,1.5,0.11,0.74,-0.16,24.53
12428967.0,-1.64,2.0,2.12,0.08,0.86,0.07,24.53
12451967.0,-1.31,1.39,1.91,-0.32,0.61,0.12,24.53
12474968.0,-0.49,0.55,2.04,-0.76,0.41,-0.02,24.58
12497968.0,-0.58,0.94,2.69,-0.95,0.54,-0.02,24.58
12520968.0,-1.39,1.13,3.88,-0.86,0.91,0.38,24.67
12543967.0,-1.22,-0.15,5.39,-0.86,1.11,0.73,24.53
12566967.0,-0.47,-1.41,7.06,-1.3,0.76,0.53,24.53
12589968.0,0.24,-1.73,7.37,-1.56,0.2,0.24,24.62
12612968.0,0.29,-1.6,7.17,-1.57,0.18,0.21,24.62
12635968.0,-0.43,-1.47,8.56,-1.32,0.5,0.46,24.58
12658968.0,-0.67,-1.36,9.81,-1.38,0.5,0.48,24.67
12681968.0,-0.12,-1.88,9.87,-1.66,0.27,0.39,24.58
12704968.0,-0.5,-2.32,9.86,-1.6,0.6,0.4,24.58
12727968.0,-0.38,-2.49,10.69,-1.44,0.89,0.47,24.62
12750967.0,-0.27,-2.65,13.01,-1.44,0.86,0.43,24.53
12773968.0,-0.82,-2.86,14.23,-1.28,0.75,0.5,24.62
12796967.0,-1.06,-3.87,14.17,-0.68,0.91,0.77,24.53
12819968.0,-0.01,-4.09,14.31,0.27,1.33,0.75,24.58
12842968.0,-0.98,-2.57,15.07,-0.12,0.63,0.31,24.67
12865968.0,-0.99,-2.61,13.46,-0.36,0.19,0.08,24.67
12888968.0,-1.3,-2.59,12.33,-0.15,0.41,0.04,24.58
12911968.0,-1.04,-2.39,11.61,-0.05,0.29,-0.07,24.62
12934967.0,-1.01,-1.61,11.14,-0.27,0.04,-0.28,24.53
12957968.0,-1.54,-1.7,11.56,-0.23,-0.05,-0.22,24.62
12980968.0,-1.5,-2.41,10.6,-0.23,-0.01,-0.25,24.62
13003968.0,-2.14,-2.27,11.73,-0.12,0.12,-0.26,24.58
13026968.0,-2.09,-2.92,12.26,0.1,-0.19,-0.19,24.48
13049968.0,-1.92,-3.18,11.88,-0.27,-0.62,-0.4,24.67
13072968.0,-1.42,-3.37,11.37,-0.05,-0.63,-0.4,24.58
13095968.0,-1.33,-2.96,11.24,0.28,-0.53,-0.23,24.58
13118967.0,-0.72,-3.45,11.21,0.18,-0.55,-0.16,24.53
13141968.0,-0.36,-4.1,11.15,-0.28,-0.94,-0.49,24.62
13164967.0,-0.03,-4.57,10.52,-0.19,-0.97,-0.59,24.53
13187968.0,0.45,-4.13,8.78,0.49,-0.37,-0.37,24.62
13210968.0,0.66,-3.45,7.24,0.84,0.25,-0.17,24.62
13233968.0,0.17,-2.37,6.45,1.16,0.84,0.07,24.58
13256968.0,0.07,-2.64,6.63,1.07,1.0,0.03,24.67
13279968.0,-1.04,-2.76,7.49,0.07,0.38,-0.59,24.58
13302967.0,-0.91,-2.31,5.85,-0.13,0.3,-0.86,24.53
13325967.0,-1.07,-1.88,4.66,0.13,0.65,-0.69,24.53
13348968.0,-1.14,-1.06,4.01,0.54,0.98,-0.35,24.62
13371968.0,-1.25,-1.02,4.19,-0.14,0.56,-0.43,24.62
13394968.0,-0.91,-1.31,3.08,-0.48,0.39,-0.37,24.58
13417968.0,-0.17,-1.63,2.32,-0.55,0.74,-0.29,24.58
13440968.0,-1.02,-2.2,4.3,-0.76,1.08,-0.38,24.48
13463968.0,-1.89,-2.26,5.75,-1.29,0.8,-0.75,24.58
13486968.0,-2.32,-2.05,5.24,-1.87,0.75,-1.13,24.62
13509968.0,-3.08,-1.55,6.32,-2.56,1.31,-1.26,24.62
13532967.0,-3.97,-2.66,8.4,-2.68,0.57,-1.02,24.53
13555968.0,-2.93,-3.27,7.04,-2.2,0.15,-0.47,24.62
13578968.0,-2.26,-6.3,6.72,-2.67,0.49,-0.56,24.58
13601968.0,-1.88,-6.63,7.77,-2.44,1.02,-0.48,24.58
13624968.0,-3.07,-7.92,8.13,-2.06,1.32,-0.49,24.58
13647968.0,-4.7,-7.95,8.67,-1.73,1.65,-0.61,24.58
13670967.0,-5.4,-7.82,8.46,-0.93,1.18,-0.1,24.53
13693967.0,-5.77,-8.33,7.98,-0.12,0.94,0.76,24.53
13716967.0,-6.82,-8.0,8.63,-0.18,-1.02,1.23,24.53
13739968.0,-4.93,-8.05,6.55,-1.08,-0.84,0.61,24.62
13762968.0,-3.7,-6.4,7.45,-1.28,-0.31,0.21,24.58
13785968.0,-3.14,-7.72,6.63,-0.77,-0.48,0.51,24.58
13808968.0,-2.42,-8.78,5.04,-0.9,-0.14,0.7,24.58
13831968.0,-2.24,-8.99,5.86,-0.84,1.57,0.2,24.58
13854968.0,-3.36,-7.19,6.63,-1.14,1.48,-0.74,24.62
13877967.0,-3.03,-6.65,7.52,-1.04,-0.68,-0.3,24.53
13900968.0,-2.34,-9.4,6.25,-0.52,0.34,0.07,24.44
13923967.0,0.37,-9.57,6.3,-0.36,1.05,-0.48,24.53
13946967.0,-0.92,-8.78,5.13,-0.14,2.95,-1.65,24.53
13969968.0,-3.13,-6.47,4.44,-0.11,4.09,-1.51,24.62
13992968.0,-4.82,-7.68,4.28,-0.41,4.04,-0.77,24.67
14015968.0,-2.98,-8.98,4.33,-0.72,4.34,-0.33,24.58
14038968.0,-7.47,-7.21,0.58,-1.45,4.24,-0.83,24.48
14061968.0,-6.04,-8.44,4.68,-1.15,3.74,-0.27,24.62
14084967.0,-5.68,-7.91,2.77,-1.45,3.31,1.39,24.53
14107968.0,-4.89,-7.65,1.51,-2.34,3.74,3.2,24.62
14130968.0,-5.3,-7.07,1.72,-2.44,3.83,4.42,24.62
14153968.0,-5.72,-8.22,-0.47,-2.18,4.18,3.9,24.58
14176968.0,-8.9,-5.26,-2.12,-1.9,3.73,3.88,24.58
14199968.0,-5.93,-3.79,-3.06,-1.96,4.43,4.57,24.58
14222968.0,-6.77,-5.58,-4.4,-2.45,4.43,5.0,24.58
14245968.0,-10.7,-4.13,-5.56,-1.87,4.49,3.9,24.62
14268968.0,-7.9,-4.09,-7.88,-1.66,3.09,1.24,24.62
14291967.0,-9.45,-1.26,-11.01,-2.29,3.72,3.57,24.53
14314967.0,-7.49,-3.42,-6.24,-2.06,2.87,3.76,24.53
14337968.0,-6.13,-2.08,-6.97,-1.68,2.47,3.47,24.58
14360968.0,-5.19,2.83,-8.85,-1.93,2.66,3.83,24.48
14383968.0,-5.89,2.16,-8.22,-2.51,3.45,5.7,24.58
14406968.0,-3.77,-1.03,-6.99,-2.13,3.19,6.58,24.58
14429967.0,-4.14,0.48,-7.99,-1.2,2.74,5.46,24.53
14452968.0,-2.71,3.7,-8.7,-0.93,1.82,5.32,24.62
14475968.0,-3.21,4.57,-8.33,-0.93,1.81,7.34,24.62
14498967.0,-1.67,3.85,-9.1,-0.69,0.82,8.4,24.53
14521968.0,-1.5,4.47,-9.75,-0.42,-0.76,7.4,24.58
14544968.0,-1.36,6.49,-10.31,-0.83,-3.11,6.88,24.67
14567968.0,2.39,2.75,-10.9,-0.51,-3.95,6.55,24.58
14590968.0,1.97,1.62,-10.54,0.02,-2.85,5.26,24.67
14613968.0,0.57,5.18,-11.06,-0.41,-3.1,4.13,24.62
14636967.0,-2.35,6.48,-11.05,-1.28,-5.06,4.16,24.53
14659968.0,0.82,-1.83,-10.41,-1.36,-6.06,4.04,24.62
14682967.0,4.05,-0.55,-10.24,-1.79,-5.41,1.22,24.53
14705967.0,0.9,3.05,-9.62,-2.08,-5.13,-0.53,24.53
14728967.0,-3.39,7.48,-8.26,-3.35,-5.02,-1.63,24.53
14751968.0,-2.42,5.91,-9.15,-4.78,-5.62,-2.83,24.58
14774968.0,-1.58,6.8,-8.58,-6.31,-5.64,-4.66,24.58
14797968.0,-4.64,6.72,-4.05,-6.31,-4.8,-5.42,24.58
14820968.0,-6.31,5.36,-2.21,-6.16,-5.1,-6.17,24.62
14843968.0,-10.57,6.65,0.26,-6.89,-6.45,-7.51,24.62
14866968.0,-9.07,6.66,-1.63,-6.25,-6.15,-6.44,24.62
14889967.0,-9.27,3.59,2.03,-5.81,-5.56,-5.57,24.53
14912968.0,-7.57,-0.02,3.03,-5.55,-5.68,-5.93,24.58
14935968.0,-4.5,-2.74,2.03,-5.89,-4.96,-6.87,24.58
14958968.0,-4.07,-2.67,5.42,-4.67,-3.18,-5.12,24.48
14981968.0,-2.31,-5.51,3.79,-3.28,-0.92,-3.18,24.58
15004968.0,-0.98,-6.17,-1.87,-3.34,2.54,-2.65,24.62
15027967.0,-8.28,-6.71,4.38,-3.03,5.75,-3.23,24.53
15050967.0,-8.44,-5.12,4.56,-3.18,3.72,-2.92,24.53
15073967.0,-5.09,-5.26,4.63,-3.73,2.71,-2.3,24.53
15096968.0,-2.62,-8.37,3.91,-4.31,0.72,-2.09,24.48
15119968.0,-3.35,-8.82,0.85,-3.91,0.02,0.16,24.58
15142968.0,-6.49,-13.1,0.38,-3.42,1.24,2.81,24.48
15165968.0,-7.65,-12.6,-0.83,-2.92,4.09,0.74,24.48
15188967.0,-7.33,-10.24,-0.86,-2.49,2.45,1.62,24.53
15211967.0,-5.34,-8.44,-1.67,-2.88,2.93,2.87,24.53
15234967.0,-4.87,-6.31,-2.6,-3.21,2.84,4.46,24.53
15257968.0,-4.74,-7.03,-4.69,-3.31,3.09,5.04,24.62
15280968.0,-6.81,-7.11,-5.83,-3.18,3.21,4.55,24.58
15303968.0,-9.28,-5.41,-5.43,-3.04,2.17,4.76,24.58
15326968.0,-7.14,-3.87,-6.31,-2.73,1.6,5.32,24.67
15349968.0,-8.68,-4.47,-5.63,-2.44,0.94,6.93,24.58
15372968.0,-6.76,-4.36,-6.0,-1.28,0.82,7.99,24.62
15395967.0,-7.53,-1.49,-6.67,-0.1,-0.2,8.49,24.53
15418967.0,-7.1,1.28,-7.95,0.5,-1.32,8.39,24.53
15441967.0,-7.97,2.68,-7.74,0.86,-1.99,8.7,24.53
15464967.0,-5.3,0.31,-8.17,1.06,-2.76,8.11,24.53
15487968.0,-8.4,3.42,-6.94,1.56,-3.43,7.53,24.62
15510968.0,-7.05,1.41,-7.74,1.48,-4.4,6.67,24.58
15533968.0,-2.57,1.89,-9.52,0.92,-5.28,4.84,24.58
15556968.0,0.06,4.22,-10.39,0.08,-5.11,2.34,24.67
15579968.0,-3.19,7.67,-8.4,-0.8,-4.82,1.44,24.62
15602967.0,-3.99,5.87,-6.44,-1.58,-4.44,-0.13,24.53
15625967.0,-2.18,6.67,-7.08,-2.56,-3.8,-2.07,24.53
15648967.0,-4.58,7.89,-5.05,-3.16,-3.5,-2.87,24.53
15671968.0,-4.73,7.27,-3.95,-3.57,-3.33,-3.16,24.48
15694968.0,-6.06,6.01,-1.22,-4.01,-3.54,-3.99,24.67
15717968.0,-5.27,4.84,-1.27,-4.66,-3.83,-5.36,24.58
15740968.0,-6.69,3.74,0.76,-5.56,-3.65,-6.94,24.48
15763968.0,-7.97,2.45,2.95,-5.34,-2.53,-7.37,24.62
15786968.0,-6.46,-2.81,6.3,-4.71,-3.08,-8.48,24.62
15809967.0,-7.62,-1.98,7.1,-4.43,-6.31,-8.63,24.53
15832967.0,-10.43,0.21,-0.47,-4.83,-6.15,-6.18,24.53
15855968.0,-8.43,-1.19,3.99,-4.02,-0.99,-2.05,24.58
15878968.0,-5.18,-7.95,4.68,-2.88,-2.01,-0.4,24.48
15901968.0,-3.4,-11.24,4.67,-2.25,-0.94,-0.75,24.58
15924968.0,-5.1,-8.38,5.3,-2.21,-1.28,-1.41,24.58
15947967.0,-4.67,-5.09,3.3,-2.54,-1.58,-1.0,24.53
15970967.0,-2.11,-6.81,2.13,-1.71,-0.85,1.19,24.53
15993968.0,-2.53,-11.68,3.2,0.05,1.43,2.48,24.62
16016968.0,-4.42,-6.27,2.83,-0.03,1.97,2.71,24.62
16039968.0,-4.08,-4.97,3.2,-0.61,1.76,2.78,24.67
16062968.0,-6.17,-7.82,4.98,0.12,1.47,3.39,24.48
16085968.0,-5.7,-11.3,8.21,1.21,-1.2,2.81,24.58
16108968.0,-5.07,-2.93,2.52,0.57,-2.02,1.67,24.58
16131968.0,-4.42,-2.22,3.68,0.02,-2.29,1.77,24.62
16154967.0,-5.83,-6.7,9.19,0.74,-3.03,2.07,24.53
16177967.0,-7.17,-9.55,12.18,1.91,-3.72,1.66,24.53
16200968.0,-4.5,-5.36,6.62,1.71,-3.16,0.45,24.62
16223968.0,-4.48,-2.81,6.6,1.35,-3.07,0.36,24.62
16246968.0,-2.36,-4.73,8.4,1.59,-2.28,0.44,24.62
16269968.0,-2.27,-4.67,8.85,1.52,-1.67,-0.25,24.58
16292968.0,-4.15,-2.46,9.36,0.91,-1.57,-0.8,24.58
16315968.0,-4.38,-1.74,9.54,0.51,-1.17,-0.68,24.58
16338968.0,-4.09,-2.76,11.92,0.96,-0.79,-0.36,24.62
16361967.0,-3.55,-3.23,11.6,1.33,-0.26,-0.42,24.53
16384968.0,-3.64,-3.28,11.11,0.77,0.0,-1.03,24.62
16407967.0,-4.72,-0.26,10.01,0.38,-0.29,-1.17,24.53
16430968.0,-6.44,0.59,10.69,0.47,-0.49,-0.47,24.58
16453968.0,-4.35,-2.23,11.23,1.09,-0.3,0.16,24.67
16476968.0,-3.74,-3.28,11.23,1.17,-0.47,0.06,24.58
16499968.0,-3.76,-3.33,11.65,0.84,-0.72,-0.4,24.67
16522968.0,-4.27,-2.36,10.45,0.74,-0.87,-0.52,24.62
16545968.0,-5.07,-1.72,11.11,0.83,-0.61,-0.37,24.62
16568967.0,-5.57,-1.44,12.03,1.0,-0.44,0.02,24.53
16591967.0,-5.17,-2.12,11.76,1.22,-0.62,0.22,24.53
16614968.0,-4.42,-1.71,10.85,1.17,-0.76,0.19,24.58
16637968.0,-3.79,-1.16,10.08,1.29,-0.73,0.28,24.58
16660968.0,-2.99,-0.96,8.6,1.45,-0.75,0.41,24.67
16683968.0,-2.49,-0.61,8.12,1.54,-0.49,0.48,24.48
16706967.0,-2.21,-0.36,7.57,1.57,-0.61,0.52,24.53
16729968.0,-1.62,-0.37,6.3,1.29,-0.9,0.47,24.62
16752967.0,-0.67,0.11,5.15,1.24,-1.13,0.45,24.53
16775967.0,0.26,0.88,2.98,1.09,-0.81,0.44,24.53
16798968.0,0.71,1.08,2.55,0.84,-0.39,0.39,24.58
16821968.0,0.42,1.29,2.9,0.6,-0.05,0.3,24.58
16844968.0,0.0,1.19,3.28,0.42,-0.07,0.28,24.58
16867968.0,-0.27,0.87,2.89,0.27,0.0,0.23,24.58
16890968.0,1.84,0.41,1.9,0.05,-0.39,0.16,24.62
16913968.0,-0.23,1.57,2.4,-0.35,0.29,0.03,24.62
16936967.0,-0.74,1.89,3.51,-0.6,0.37,0.05,24.53
16959968.0,-1.14,1.69,4.5,-0.7,0.69,0.11,24.44
16982968.0,-0.84,1.42,5.34,-0.66,0.9,0.18,24.62
17005968.0,-1.39,1.26,6.51,-0.93,0.59,0.09,24.62
17028968.0,-1.15,0.71,6.1,-1.2,0.29,0.05,24.58
17051968.0,-1.52,0.62,7.06,-1.43,0.45,-0.0,24.58
17074967.0,-1.28,0.0,7.85,-1.7,0.3,-0.09,24.53
17097968.0,-1.13,-0.51,8.85,-1.69,0.31,-0.18,24.62
17120967.0,-1.61,-0.08,9.78,-1.81,-0.11,-0.22,24.53
17143968.0,-0.48,-0.52,9.42,-2.04,-0.45,-0.2,24.62
17166968.0,-0.08,-1.23,9.31,-1.76,-0.04,-0.1,24.62
17189968.0,-1.65,-0.94,11.06,-1.46,0.16,0.06,24.58
17212968.0,-1.64,-1.34,11.31,-1.36,-0.2,0.2,24.58
17235968.0,0.01,-2.14,10.1,-1.55,-0.35,0.18,24.58
17258968.0,0.72,-3.27,10.36,-1.47,-0.18,0.08,24.58
17281967.0,-0.17,-2.89,10.55,-1.18,0.11,0.06,24.53
17304967.0,-0.89,-2.68,11.25,-1.01,0.18,0.23,24.53
17327967.0,-0.1,-4.05,11.95,-0.94,0.09,0.24,24.53
17350968.0,0.25,-4.63,11.52,-0.68,0.06,0.1,24.62
17373968.0,0.13,-4.51,11.28,-0.38,0.34,-0.04,24.58
17396968.0,-0.06,-3.59,11.38,-0.27,0.32,-0.06,24.48
17419968.0,0.32,-3.1,10.22,-0.09,0.47,-0.01,24.58
17442968.0,0.15,-2.8,9.39,0.17,0.61,0.08,24.58
17465967.0,-0.71,-2.19,10.15,0.36,0.69,0.14,24.53
17488967.0,-1.34,-1.39,10.73,0.24,0.14,0.12,24.53
17511967.0,-1.43,-1.96,10.83,-0.01,-0.2,0.04,24.53
17534967.0,-0.87,-2.63,10.1,-0.08,-0.16,-0.08,24.53
17557968.0,-0.42,-2.9,9.58,0.08,-0.07,-0.11,24.48
17580968.0,-0.42,-2.98,9.96,0.2,0.23,-0.1,24.48
17603968.0,-0.3,-3.32,10.39,0.38,0.22,-0.18,24.58
17626968.0,-0.85,-3.06,10.46,0.33,0.29,-0.29,24.58
17649967.0,-1.28,-3.04,12.02,0.39,0.36,-0.37,24.53
17672967.0,-1.12,-3.25,12.61,0.63,0.32,-0.43,24.53
17695968.0,-1.61,-2.7,13.08,0.91,0.26,-0.42,24.62
17718967.0,-1.95,-2.43,12.73,1.15,0.14,-0.36,24.53
17741968.0,-1.81,-2.55,12.61,1.18,0.14,-0.39,24.62
17764968.0,-1.55,-2.91,12.16,1.36,0.12,-0.41,24.62
17787968.0,-1.66,-2.6,11.62,1.62,0.08,-0.48,24.58
17810968.0,-2.06,-2.08,10.95,1.79,-0.14,-0.53,24.67
17833968.0,-2.17,-1.1,10.15,1.75,-0.32,-0.55,24.62
17856968.0,-1.99,-0.16,9.88,1.73,-0.35,-0.4,24.62
17879967.0,-1.22,-0.48,9.48,1.81,-0.39,-0.31,24.53
17902968.0,-0.8,-0.87,8.24,1.92,-0.52,-0.35,24.62
17925967.0,-0.99,-0.66,6.64,1.87,-0.52,-0.46,24.53
17948968.0,-1.48,0.39,5.89,1.56,-0.55,-0.6,24.58
17971968.0,-2.43,0.3,5.61,0.76,-0.79,-1.04,24.58
17994968.0,-3.96,1.22,5.61,0.31,-0.77,-1.26,24.58
18017968.0,-5.72,2.15,5.89,0.46,-0.49,-0.88,24.58
18040967.0,-5.88,1.53,5.03,0.26,-0.68,-0.55,24.53
18063967.0,-5.95,1.02,4.94,-0.04,-0.43,-0.39,24.53
18086968.0,-6.09,1.27,5.08,-0.07,-0.24,-0.18,24.62
18109968.0,-6.29,2.05,5.24,-0.0,0.08,0.15,24.62
18132968.0,-6.08,1.9,5.93,0.18,0.52,0.54,24.67
18155968.0,-5.58,1.54,6.16,-0.01,0.46,0.65,24.58
18178968.0,-5.11,1.06,6.0,-0.28,0.41,0.66,24.58
18201968.0,-4.91,0.52,6.0,-0.27,0.58,0.78,24.58
18224967.0,-4.37,0.39,6.21,-0.34,0.7,0.87,24.53
18247967.0,-3.23,0.32,6.43,-0.62,0.66,0.87,24.53
18270967.0,-2.12,0.18,6.11,-0.78,0.55,0.9,24.53
18293968.0,-0.75,0.74,5.83,-0.88,0.61,1.03,24.62
18316968.0,0.42,0.75,6.57,-1.31,0.44,1.11,24.67
18339968.0,1.9,-0.17,7.41,-1.71,0.4,1.0,24.58
18362968.0,3.17,-2.02,8.04,-1.9,0.11,0.73,24.58
18385968.0,3.72,-2.02,8.27,-1.54,0.21,0.63,24.48
18408968.0,4.39,-1.11,8.13,-1.45,0.3,0.63,24.44
18431968.0,4.54,-0.57,8.96,-1.39,0.24,0.65,24.62
18454967.0,4.97,-1.7,9.29,-1.2,0.1,0.56,24.53
18477967.0,4.63,-1.47,8.99,-0.97,0.18,0.35,24.53
18500968.0,4.24,-0.67,10.15,-0.9,0.18,0.19,24.62
18523967.0,3.96,-0.28,11.99,-1.0,-0.07,0.11,24.53
18546968.0,4.15,-1.63,11.15,-0.83,-0.22,0.08,24.48
18569968.0,3.04,-2.94,9.47,-0.31,0.4,-0.05,24.58
18592967.0,0.66,-2.16,11.48,-0.12,1.14,-0.22,24.53
18615968.0,-0.69,-1.25,13.89,-0.08,1.12,-0.21,24.62
18638968.0,-0.82,-2.64,13.67,0.05,0.72,-0.2,24.72
18661967.0,-1.25,-2.99,12.71,0.29,0.77,-0.41,24.53
18684968.0,-1.87,-2.57,11.35,0.52,0.73,-0.58,24.58
18707968.0,-2.72,-1.64,10.65,0.56,0.73,-0.66,24.58
18730968.0,-3.88,-0.39,10.02,0.59,0.64,-0.58,24.58
18753968.0,-3.86,-0.65,8.74,0.6,0.65,-0.45,24.58
18776968.0,-3.87,-0.31,8.32,0.62,0.79,-0.42,24.58
18799967.0,-4.05,0.21,8.66,0.41,0.57,-0.43,24.53
18822967.0,-4.15,0.36,8.4,0.35,0.37,-0.4,24.53
18845967.0,-4.63,0.02,6.88,0.36,0.39,-0.3,24.53
18868968.0,-5.39,-0.45,7.42,0.26,0.7,-0.21,24.44
18891968.0,-6.28,-1.24,10.1,0.46,0.59,-0.19,24.58
18914968.0,-5.59,-0.77,10.68,0.5,0.15,-0.36,24.58
18937968.0,-5.87,0.08,9.98,0.26,-0.08,-0.53,24.48
18960968.0,-6.4,1.03,10.13,0.18,-0.19,-0.47,24.58
18983967.0,-6.76,1.34,10.95,0.15,-0.19,-0.34,24.53
19006968.0,-6.55,1.29,11.87,0.19,-0.44,-0.19,24.62
19029968.0,-6.57,1.3,11.8,0.05,-0.84,-0.09,24.62
19052968.0,-5.88,0.16,11.3,0.14,-1.1,0.11,24.62
19075968.0,-5.29,-0.6,10.75,0.54,-0.85,0.29,24.48
19098968.0,-4.85,-1.13,11.4,0.78,-0.74,0.32,24.58
19121968.0,-4.56,-1.29,11.04,0.7,-1.07,0.15,24.58
19144968.0,-4.52,-1.51,9.94,0.51,-1.51,-0.03,24.58
19167968.0,-4.25,-1.32,8.64,0.59,-1.5,-0.02,24.62
19190967.0,-3.25,-0.93,7.39,0.91,-1.14,0.09,24.53
19213967.0,-2.56,-0.37,6.87,0.69,-1.24,0.01,24.53
19236967.0,-2.36,-0.37,7.04,0.23,-1.46,-0.16,24.53
19259968.0,-2.16,0.0,6.27,0.21,-1.39,-0.16,24.62
19282968.0,-1.45,0.14,5.56,0.34,-1.05,-0.04,24.62
19305968.0,-0.69,0.56,5.27,0.38,-0.82,0.04,24.48
19328968.0,-0.33,0.82,5.08,0.06,-0.92,-0.02,24.48
19351967.0,0.25,0.72,3.96,-0.03,-0.83,0.01,24.53
19374967.0,0.06,0.95,3.31,0.06,-0.4,0.17,24.53
19397967.0,0.09,1.46,3.46,0.27,0.24,0.4,24.53
19420968.0,-0.51,2.45,4.21,-0.01,0.39,0.54,24.62
19443968.0,-0.16,1.72,4.38,-0.62,0.03,0.65,24.58
19466968.0,0.97,0.71,3.67,-0.63,0.09,0.76,24.58
19489968.0,1.0,0.75,3.84,-0.66,0.68,0.81,24.48
19512968.0,0.61,0.54,5.43,-0.75,1.07,0.87,24.58
19535968.0,0.6,0.26,7.13,-1.27,0.82,0.85,24.44
19558968.0,1.83,-1.72,8.27,-1.51,0.52,0.75,24.62
19581967.0,2.15,-2.39,8.84,-1.19,0.73,0.5,24.53
19604967.0,0.74,-1.0,10.64,-1.05,0.89,0.44,24.53
19627967.0,0.64,-0.76,11.21,-0.97,0.67,0.55,24.53
19650968.0,1.33,-2.23,11.3,-1.1,0.54,0.45,24.48
19673968.0,1.45,-2.8,12.06,-0.96,0.65,0.13,24.58
19696968.0,0.65,-1.82,12.08,-0.72,0.59,-0.03,24.58
19719968.0,0.6,-1.57,11.96,-0.68,0.42,-0.05,24.58
19742967.0,0.95,-2.29,11.44,-0.63,0.33,-0.15,24.53
19765967.0,0.39,-1.52,12.72,-0.35,-0.41,-0.2,24.53
19788968.0,0.4,-1.45,12.01,-0.34,-0.22,-0.33,24.62
19811967.0,-0.11,-1.45,11.82,-0.1,0.06,-0.29,24.53
19834968.0,-0.6,-1.53,11.4,0.12,0.34,-0.29,24.58
19857968.0,-1.58,-1.37,11.5,0.16,0.38,-0.36,24.39
19880968.0,-1.16,-0.69,11.21,0.13,-0.04,-0.38,24.58
19903968.0,-1.64,-0.77,10.16,0.01,-0.32,-0.34,24.48
19926967.0,-1.13,-0.86,9.73,0.21,-0.24,-0.24,24.53
19949967.0,-0.7,-0.85,9.35,0.39,0.06,-0.18,24.53
19972967.0,-1.05,-0.68,10.07,0.32,0.05,-0.15,24.53
19995967.0,-0.4,-1.06,9.87,0.16,-0.1,-0.23,24.53
20018967.0,-0.41,-0.99,9.92,0.21,-0.05,-0.33,24.53
20041967.0,-0.75,-0.91,10.3,0.27,-0.0,-0.35,24.53
20064968.0,-1.21,-0.9,10.69,0.32,-0.02,-0.29,24.58
20087968.0,-1.27,-1.17,10.44,0.3,-0.21,-0.22,24.58
20110967.0,-0.79,-1.94,9.75,0.33,-0.3,-0.22,24.53
20133967.0,-1.18,-1.98,9.29,0.48,-0.2,-0.33,24.53
20156967.0,-2.55,-1.18,9.35,0.41,-0.19,-0.32,24.53
20179967.0,-2.25,-0.96,8.03,0.19,-0.4,-0.3,24.53
20202968.0,-2.07,-1.29,7.58,0.03,-0.4,-0.3,24.58
20225968.0,-2.18,-1.38,7.69,0.11,-0.3,-0.28,24.67
20248968.0,-2.48,-1.23,7.79,0.13,-0.21,-0.3,24.58
20271968.0,-2.33,-0.84,7.75,0.09,-0.2,-0.37,24.48
20294967.0,-2.53,-0.13,7.05,0.07,-0.06,-0.28,24.53
20317967.0,-2.63,-0.22,7.07,0.09,0.13,-0.08,24.53
20340967.0,-2.29,-0.46,6.83,0.14,0.2,0.1,24.53
20363967.0,-1.76,-0.58,6.87,0.01,0.27,0.09,24.53
20386967.0,-1.51,-0.13,6.75,-0.14,0.21,0.08,24.53
20409968.0,-1.25,0.18,6.7,-0.27,0.32,0.2,24.67
20432968.0,-0.99,-0.33,7.69,-0.33,0.51,0.32,24.48
20455968.0,-0.97,-0.66,7.82,-0.41,0.55,0.32,24.58
20478968.0,-0.41,-0.55,7.64,-0.51,0.6,0.32,24.58
20501968.0,-0.75,-0.71,8.84,-0.5,0.54,0.46,24.62
20524967.0,-0.68,-1.22,9.28,-0.54,0.32,0.56,24.53
20547968.0,-0.03,-1.84,9.25,-0.58,0.25,0.53,24.44
20570968.0,0.19,-1.86,9.89,-0.51,0.17,0.42,24.62
20593968.0,0.46,-1.56,9.7,-0.44,0.2,0.29,24.58
20616968.0,0.59,-1.23,9.87,-0.4,0.24,0.2,24.58
20639968.0,0.13,-0.4,10.86,-0.28,0.26,0.17,24.48
20662968.0,0.08,0.12,10.98,-0.3,0.13,0.22,24.67
20685968.0,0.63,-0.46,10.86,-0.37,0.05,0.23,24.62
20708967.0,0.73,-1.28,11.32,-0.22,0.15,0.17,24.53
20731968.0,0.07,-1.08,11.47,0.06,0.09,0.19,24.62
20754967.0,0.05,-1.38,10.84,0.06,0.05,0.19,24.53
20777968.0,0.25,-1.67,10.58,0.05,-0.06,0.13,24.62
20800968.0,0.31,-1.61,10.01,0.07,-0.09,0.06,24.58
20823968.0,0.2,-1.32,9.61,0.03,-0.08,0.02,24.58
20846968.0,0.19,-1.33,9.06,-0.0,-0.07,0.04,24.58
20869967.0,0.01,-2.12,9.37,-0.12,-0.01,0.06,24.53
20892968.0,0.12,-3.34,9.74,-0.09,0.02,-0.08,24.62
20915968.0,-0.51,-3.4,9.74,0.23,0.21,-0.29,24.62
20938968.0,-1.77,-1.98,10.08,0.5,0.29,-0.36,24.62
20961968.0,-2.07,-1.36,9.27,0.44,0.22,-0.4,24.67
20984968.0,-2.51,-1.22,9.35,0.27,0.14,-0.49,24.67
21007968.0,-2.56,-1.02,9.35,0.28,0.03,-0.59,24.48
21030968.0,-2.55,-0.62,8.83,0.26,-0.04,-0.61,24.58
21053968.0,-3.03,-0.42,9.09,0.32,-0.08,-0.49,24.44
21076967.0,-3.11,-0.94,8.81,0.34,-0.06,-0.39,24.53
21099968.0,-2.72,-0.91,8.65,0.26,0.02,-0.48,24.62
21122967.0,-3.15,-0.59,8.89,0.11,-0.02,-0.57,24.53
21145968.0,-3.68,-0.21,9.33,0.08,-0.25,-0.5,24.48
21168968.0,-3.47,-0.1,8.72,0.16,-0.47,-0.31,24.58
21191968.0,-2.83,-0.85,9.12,0.09,-0.55,-0.27,24.48
21214968.0,-2.32,-1.07,9.56,-0.0,-0.55,-0.38,24.67
21237968.0,-1.97,-0.98,9.09,-0.12,-0.72,-0.42,24.58
21260967.0,-1.77,-1.37,9.11,-0.01,-0.61,-0.33,24.53
21283967.0,-1.24,-1.44,8.44,0.24,-0.44,-0.27,24.53
21306967.0,-1.19,-1.01,8.13,0.28,-0.41,-0.26,24.53
21329967.0,-1.49,-0.13,8.11,0.19,-0.41,-0.18,24.53
21352968.0,-1.1,0.13,7.22,0.02,-0.45,-0.06,24.58
21375968.0,-1.08,0.12,6.94,0.2,-0.09,0.2,24.48
21398968.0,-0.73,0.36,6.85,0.47,0.17,0.41,24.58
21421968.0,-0.75,1.38,6.78,0.57,0.42,0.66,24.48
21444967.0,-0.29,1.43,6.24,0.46,0.57,0.95,24.53
21467967.0,0.37,0.33,6.41,0.33,0.73,1.03,24.53
21490967.0,0.49,-0.39,7.98,-0.0,0.6,0.86,24.53
21513967.0,0.9,-0.55,8.02,-0.27,0.3,0.58,24.53
21536968.0,1.25,-0.35,8.1,-0.6,0.13,0.46,24.62
21559968.0,1.61,-0.76,8.31,-0.52,0.3,0.5,24.48
21582968.0,2.44,-1.19,9.37,-0.64,0.21,0.51,24.58
21605968.0,3.87,-2.52,9.76,-1.16,-0.3,0.36,24.48
21628967.0,4.72,-3.34,9.08,-1.37,-0.52,0.27,24.53
21651968.0,3.95,-3.59,9.6,-0.65,0.36,0.42,24.72
21674967.0,0.51,-1.44,12.75,-0.01,0.99,0.77,24.53
21697968.0,-1.08,-0.25,13.03,-0.12,0.32,0.9,24.62
21720968.0,-0.03,-1.01,11.14,-0.64,0.18,0.63,24.58
21743968.0,-0.48,-0.76,11.05,-0.65,0.24,0.26,24.58
21766968.0,-2.41,1.39,11.72,-0.2,0.3,0.31,24.58
21789968.0,-1.79,0.65,10.78,0.14,-0.06,0.53,24.48
21812967.0,0.25,-0.53,8.82,0.81,0.85,0.37,24.53
21835967.0,-0.69,-0.32,8.61,0.79,0.66,0.25,24.53
21858967.0,-1.26,-1.38,9.52,0.2,0.13,-0.15,24.53
21881967.0,-2.44,0.17,9.64,-0.02,-0.47,-0.38,24.53
21904968.0,-2.02,0.35,9.02,-0.24,-0.82,-0.31,24.58
21927968.0,-1.49,-0.32,7.91,-0.07,-0.09,-0.13,24.48
21950968.0,-1.79,-1.41,9.25,0.32,0.34,0.01,24.58
21973968.0,-3.7,-0.72,12.4,-0.72,0.12,-0.38,24.48
21996967.0,-1.73,-0.69,8.3,-0.28,-0.28,-0.32,24.53
22019967.0,-2.99,-0.25,9.35,0.3,0.29,-0.22,24.53
22042967.0,-2.26,-0.83,8.11,0.42,0.73,-0.09,24.53
22065967.0,-3.65,-0.43,9.37,0.82,1.18,-0.02,24.53
22088967.0,-3.12,-0.76,9.46,1.0,0.38,0.27,24.53
22111968.0,-2.6,-0.11,7.56,0.8,0.55,0.12,24.58
22134968.0,-3.84,0.47,8.37,0.83,0.56,0.15,24.48
22157968.0,-4.3,1.08,8.56,1.2,0.52,0.49,24.58
22180968.0,-3.06,-3.41,8.9,0.43,0.43,0.24,24.58
22203967.0,-2.85,-0.06,7.97,0.12,-0.09,-0.29,24.53
22226967.0,-5.98,4.2,7.96,0.4,-0.25,0.23,24.53
22249967.0,-4.12,2.07,8.06,0.12,-0.12,0.73,24.53
22272967.0,-2.59,0.39,9.09,0.01,-0.35,0.5,24.53
22295967.0,-3.09,1.46,8.77,0.17,-0.01,0.48,24.53
22318968.0,-2.95,1.06,9.32,0.43,0.15,0.54,24.48
22341968.0,-2.19,1.32,8.5,0.46,0.11,0.6,24.58
22364968.0,-1.91,0.4,8.91,0.41,-0.06,0.55,24.58
22387968.0,-0.59,0.06,9.54,0.27,0.02,0.14,24.44
22410967.0,-0.95,1.41,8.28,0.46,-0.16,0.2,24.53
22433968.0,-0.64,1.28,8.38,0.52,0.13,0.13,24.44
22456968.0,-0.8,1.54,8.71,0.76,0.05,0.23,24.44
22479968.0,-0.19,1.73,7.68,0.86,0.28,0.24,24.48
22502968.0,-0.04,2.19,5.64,0.86,0.47,0.09,24.58
22525968.0,0.2,1.5,5.59,0.37,0.1,-0.21,24.58
22548968.0,-0.82,1.73,6.15,-0.51,-0.46,-0.51,24.58
22571967.0,0.28,0.32,7.94,-0.5,-0.89,-0.49,24.53
22594967.0,1.14,0.5,7.03,-0.53,-0.16,0.04,24.53
22617968.0,-1.74,0.85,6.52,-0.7,-0.16,0.07,24.62
22640968.0,-1.85,0.28,7.53,-0.42,-0.68,0.22,24.62
22663968.0,-1.5,0.47,8.24,-0.55,-0.65,0.47,24.58
22686968.0,0.53,0.74,11.95,0.22,-0.87,0.06,24.48
22709968.0,0.24,0.94,6.82,-0.01,-1.25,-1.27,24.58
22732968.0,-5.28,3.17,8.54,-0.97,-2.19,-0.57,24.58
22755968.0,2.47,-5.66,22.17,-0.26,-4.21,0.09,24.44
22778968.0,3.04,3.8,13.19,2.26,-2.83,-1.53,24.62
22801967.0,-4.83,1.59,6.62,1.85,-1.48,-1.12,24.53
22824967.0,1.51,2.99,5.67,-0.05,-0.78,0.53,24.53
22847967.0,4.0,2.23,9.7,-1.02,-0.23,0.27,24.53
22870968.0,3.1,2.11,11.4,-0.02,-0.15,-0.0,24.48
22893968.0,0.97,2.84,8.64,0.69,-0.28,-0.46,24.48
22916968.0,0.65,2.82,5.27,0.39,-0.56,-0.3,24.58
22939968.0,1.37,3.01,6.28,-1.08,-0.23,-0.22,24.58
22962968.0,2.22,2.7,8.54,-1.35,-0.1,-0.13,24.62
22985968.0,2.43,2.28,9.35,-1.01,-0.07,-0.08,24.62
23008967.0,2.4,1.77,9.22,-0.83,0.14,0.03,24.53
23031967.0,3.12,1.68,9.19,-0.6,0.24,0.1,24.53
23054968.0,2.72,0.97,9.95,-0.49,0.39,0.02,24.62
23077968.0,2.47,0.68,10.1,-0.37,0.29,-0.04,24.48
23100968.0,2.24,0.65,9.99,-0.26,0.1,-0.18,24.58
23123968.0,0.67,0.56,9.8,0.01,0.16,-0.25,24.58
23146968.0,0.62,0.73,8.53,-0.02,0.23,0.03,24.72
23169968.0,1.46,1.06,8.73,-0.33,0.29,0.14,24.62
23192968.0,1.92,1.03,9.7,-0.26,0.23,0.06,24.62
23215968.0,1.9,1.04,9.14,-0.07,0.24,-0.05,24.44
