Time (us),AccelX (m/s^2),AccelY (m/s^2),AccelZ (m/s^2),GyroX (rad/s),GyroY (rad/s),GyroZ (rad/s),Temp (C)
1871954.0,0.34,-0.02,9.35,-0.04,0.03,-0.01,27.64
1894953.0,0.22,0.03,9.23,-0.05,0.03,-0.01,27.78
1917954.0,0.3,-0.01,9.31,-0.04,0.02,-0.01,27.68
1940953.0,0.32,0.04,9.27,-0.04,0.03,-0.01,27.78
1963954.0,0.3,0.03,9.24,-0.04,0.03,-0.01,27.73
1986954.0,0.4,0.07,9.26,-0.04,0.03,-0.01,27.64
2009954.0,0.36,0.02,9.13,-0.04,0.03,-0.01,27.82
2032954.0,0.32,0.0,9.11,-0.04,0.03,-0.01,27.73
2055954.0,0.3,0.04,9.17,-0.04,0.03,-0.01,27.64
2078954.0,0.31,-0.05,9.22,-0.05,0.02,-0.01,27.68
2101954.0,0.37,0.04,9.15,-0.04,0.03,-0.01,27.68
2124954.0,0.34,0.02,9.19,-0.04,0.03,-0.01,27.68
2147954.0,0.23,0.01,9.21,-0.04,0.03,-0.01,27.68
2170954.0,0.32,0.0,9.23,-0.04,0.02,-0.01,27.64
2193954.0,0.3,-0.01,9.31,-0.04,0.03,-0.01,27.73
2216954.0,0.34,0.02,9.22,-0.04,0.02,-0.01,27.73
2239954.0,0.38,0.02,9.26,-0.04,0.02,-0.01,27.73
2262954.0,0.35,0.0,9.19,-0.04,0.02,-0.01,27.59
2285954.0,0.4,-0.06,9.23,-0.04,0.03,-0.01,27.68
2308954.0,0.32,0.0,9.23,-0.04,0.03,-0.01,27.68
2331954.0,0.34,-0.02,9.12,-0.04,0.03,-0.01,27.68
2354954.0,0.3,0.03,9.32,-0.04,0.03,-0.01,27.68
2377954.0,0.29,-0.0,9.2,-0.04,0.03,-0.01,27.64
2400954.0,0.37,-0.0,9.28,-0.04,0.02,-0.01,27.64
2423954.0,0.34,0.07,9.25,-0.04,0.03,-0.01,27.73
2446954.0,0.37,0.03,9.27,-0.04,0.02,-0.01,27.73
2469953.0,0.34,0.05,9.27,-0.04,0.03,-0.01,27.78
2492954.0,0.29,-0.01,9.16,-0.04,0.03,-0.01,27.68
2515954.0,0.32,-0.05,9.21,-0.04,0.03,-0.01,27.68
2538954.0,0.32,-0.0,9.3,-0.05,0.03,-0.01,27.68
2561954.0,0.31,0.06,9.36,-0.05,0.03,-0.01,27.73
2584954.0,0.31,-0.01,9.22,-0.04,0.03,-0.01,27.73
2607954.0,0.37,0.07,9.26,-0.04,0.03,-0.01,27.73
2630954.0,0.27,-0.02,9.29,-0.04,0.03,-0.0,27.64
2653954.0,0.35,-0.02,9.19,-0.05,0.03,-0.01,27.64
2676954.0,0.36,-0.02,9.22,-0.04,0.03,-0.01,27.73
2699954.0,0.29,0.06,9.13,-0.04,0.03,-0.01,27.68
2722954.0,0.32,0.0,9.15,-0.04,0.03,-0.01,27.68
2745954.0,0.36,-0.01,9.18,-0.05,0.03,-0.01,27.68
2768954.0,0.34,0.06,9.18,-0.04,0.03,-0.01,27.64
2791954.0,0.39,-0.02,9.22,-0.05,0.03,-0.01,27.73
2814954.0,0.3,-0.01,9.22,-0.05,0.03,-0.01,27.73
2837954.0,0.31,0.02,9.29,-0.04,0.03,-0.01,27.64
2860954.0,0.31,-0.02,9.09,-0.04,0.03,-0.01,27.68
2883953.0,0.26,-0.04,9.15,-0.04,0.02,-0.01,27.78
2906954.0,0.31,0.0,9.16,-0.04,0.03,-0.01,27.68
2929954.0,0.35,0.04,9.19,-0.04,0.03,-0.01,27.68
2952954.0,0.3,-0.0,9.22,-0.04,0.03,-0.01,27.59
2975954.0,0.36,0.04,9.17,-0.05,0.03,-0.01,27.82
2998954.0,0.32,-0.03,9.08,-0.05,0.03,-0.01,27.73
3021954.0,0.3,-0.01,9.29,-0.04,0.03,-0.01,27.64
3044954.0,0.33,-0.0,9.24,-0.04,0.03,-0.01,27.64
3067953.0,0.31,0.04,9.22,-0.04,0.03,-0.01,27.78
3090954.0,0.37,-0.03,9.22,-0.04,0.03,-0.01,27.68
3113954.0,0.32,0.01,9.29,-0.04,0.03,-0.01,27.68
3136954.0,0.32,-0.02,9.28,-0.05,0.03,-0.01,27.68
3159954.0,0.3,0.06,9.19,-0.04,0.03,-0.01,27.68
3182954.0,0.33,-0.0,9.24,-0.04,0.03,-0.01,27.64
3205954.0,0.34,-0.02,9.23,-0.04,0.03,-0.01,27.73
3228954.0,0.28,-0.03,9.2,-0.04,0.03,-0.01,27.73
3251954.0,0.36,0.02,9.26,-0.04,0.03,-0.01,27.73
3274954.0,0.33,0.05,9.23,-0.04,0.03,-0.01,27.68
3297953.0,0.32,0.03,9.26,-0.04,0.03,-0.01,27.78
3320954.0,0.31,0.0,9.27,-0.04,0.03,-0.01,27.68
3343953.0,0.29,-0.06,9.08,-0.04,0.03,-0.01,27.78
3366954.0,0.37,0.06,9.23,-0.04,0.03,-0.01,27.73
3389954.0,0.31,0.01,9.2,-0.05,0.03,-0.01,27.64
3412954.0,0.32,0.0,9.21,-0.04,0.03,-0.01,27.73
3435954.0,0.32,-0.04,9.2,-0.04,0.03,-0.01,27.73
3458954.0,0.31,0.01,9.13,-0.04,0.03,-0.01,27.73
3481954.0,0.38,0.01,9.23,-0.04,0.03,-0.01,27.73
3504954.0,0.34,-0.0,9.2,-0.04,0.02,-0.01,27.68
3527953.0,0.32,-0.03,9.22,-0.04,0.03,-0.01,27.78
3550953.0,0.35,0.1,9.13,-0.04,0.03,-0.01,27.78
3573954.0,0.32,0.01,9.17,-0.04,0.03,-0.01,27.64
3596954.0,0.42,-0.05,9.19,-0.05,0.03,-0.01,27.64
3619954.0,0.28,-0.01,9.28,-0.04,0.03,-0.01,27.73
3642954.0,0.31,-0.01,9.18,-0.04,0.03,-0.01,27.73
3665954.0,0.34,0.06,9.21,-0.04,0.03,-0.01,27.68
3688954.0,0.29,-0.03,9.23,-0.04,0.03,-0.01,27.68
3711953.0,0.31,0.01,9.19,-0.05,0.03,-0.01,27.78
3734954.0,0.3,-0.01,9.23,-0.05,0.03,-0.01,27.68
3757953.0,0.38,0.02,9.24,-0.05,0.02,-0.01,27.78
3780954.0,0.26,-0.03,9.25,-0.05,0.03,-0.01,27.64
3803954.0,0.24,0.01,9.24,-0.04,0.03,-0.01,27.64
3826954.0,0.29,-0.03,9.12,-0.04,0.03,-0.01,27.73
3849954.0,0.32,-0.03,9.33,-0.04,0.03,-0.01,27.73
3872954.0,0.35,0.0,9.09,-0.04,0.03,-0.01,27.68
3895953.0,0.31,0.0,9.32,-0.04,0.03,-0.01,27.78
3918953.0,0.37,0.05,9.43,-0.04,0.03,-0.01,27.78
3941954.0,0.3,-0.06,9.45,-0.04,0.02,-0.01,27.68
3964954.0,0.34,0.02,9.3,-0.04,0.02,-0.01,27.64
3987954.0,0.32,-0.01,9.28,-0.04,0.03,-0.01,27.73
4010954.0,0.33,0.0,9.3,-0.04,0.03,-0.01,27.73
4033954.0,0.34,0.1,9.31,-0.04,0.03,-0.01,27.73
4056954.0,0.36,0.05,9.18,-0.04,0.03,-0.01,27.73
4079954.0,0.37,-0.07,9.17,-0.04,0.03,-0.01,27.68
4102953.0,0.35,0.03,9.15,-0.04,0.03,-0.01,27.78
4125954.0,0.33,0.01,9.24,-0.04,0.03,-0.01,27.59
4148954.0,0.36,0.06,9.39,-0.04,0.03,-0.01,27.68
4171954.0,0.36,-0.04,9.31,-0.04,0.03,-0.01,27.73
4194954.0,0.29,0.0,9.24,-0.04,0.03,-0.01,27.64
4217954.0,0.32,0.02,9.24,-0.04,0.03,-0.01,27.64
4240954.0,0.35,0.05,9.21,-0.05,0.03,-0.01,27.73
4263954.0,0.3,-0.01,9.17,-0.04,0.03,-0.01,27.73
4286954.0,0.33,0.03,9.28,-0.04,0.03,-0.01,27.64
4309954.0,0.27,-0.0,9.29,-0.04,0.03,-0.01,27.68
4332954.0,0.32,-0.04,9.17,-0.04,0.03,-0.01,27.68
4355954.0,0.34,0.03,9.22,-0.04,0.02,-0.01,27.68
4378954.0,0.31,0.0,9.15,-0.05,0.03,-0.01,27.73
4401954.0,0.36,0.01,9.18,-0.04,0.03,-0.01,27.73
4424954.0,0.31,0.03,9.18,-0.04,0.03,-0.01,27.73
4447954.0,0.34,0.04,9.19,-0.05,0.03,-0.01,27.64
4470954.0,0.35,-0.03,9.26,-0.05,0.02,-0.01,27.68
4493954.0,0.3,0.01,9.13,-0.04,0.03,-0.01,27.68
4516953.0,0.35,0.0,9.2,-0.04,0.02,-0.01,27.78
4539953.0,0.24,0.01,9.22,-0.04,0.03,-0.01,27.78
4562953.0,0.38,-0.01,9.23,-0.05,0.03,-0.01,27.78
4585954.0,0.29,-0.0,9.32,-0.04,0.03,-0.01,27.73
4608954.0,0.26,0.01,9.33,-0.04,0.03,-0.01,27.73
4631954.0,0.33,0.01,9.14,-0.04,0.02,-0.01,27.73
4654954.0,0.25,0.02,9.25,-0.05,0.03,-0.01,27.73
4677954.0,0.26,-0.01,9.21,-0.04,0.03,-0.01,27.68
4700953.0,0.31,-0.02,9.17,-0.04,0.03,-0.01,27.78
4723954.0,0.31,-0.02,9.25,-0.04,0.03,-0.01,27.68
4746954.0,0.34,0.0,9.26,-0.04,0.03,-0.01,27.68
4769954.0,0.36,-0.0,9.22,-0.05,0.03,-0.01,27.73
4792954.0,0.38,-0.01,9.22,-0.04,0.03,-0.01,27.73
4815954.0,0.34,-0.02,9.28,-0.04,0.03,-0.01,27.73
4838954.0,0.34,-0.01,9.18,-0.04,0.03,-0.01,27.73
4861954.0,0.37,0.0,9.13,-0.05,0.03,-0.01,27.64
4884954.0,0.33,0.01,9.21,-0.04,0.02,-0.01,27.68
4907954.0,0.32,0.03,9.18,-0.04,0.03,-0.01,27.59
4930953.0,0.34,0.01,9.27,-0.05,0.03,-0.01,27.78
4953953.0,0.34,0.02,9.13,-0.04,0.03,-0.01,27.78
4976954.0,0.31,0.0,9.15,-0.05,0.03,-0.01,27.73
4999954.0,0.32,0.02,9.13,-0.04,0.03,-0.01,27.73
5022954.0,0.33,0.07,9.2,-0.04,0.03,-0.01,27.82
5045954.0,0.27,-0.0,9.23,-0.04,0.02,-0.01,27.64
5068954.0,0.29,0.04,9.12,-0.04,0.03,-0.01,27.64
5091954.0,0.33,0.01,9.28,-0.04,0.03,-0.01,27.64
5114954.0,0.4,0.01,9.26,-0.04,0.03,-0.01,27.68
5137954.0,0.34,0.04,9.24,-0.04,0.03,-0.01,27.68
5160954.0,0.37,-0.02,9.19,-0.04,0.03,-0.01,27.68
5183954.0,0.28,-0.0,9.23,-0.04,0.03,-0.01,27.64
5206954.0,0.35,-0.0,9.28,-0.04,0.03,-0.01,27.73
5229954.0,0.35,-0.02,9.2,-0.04,0.02,-0.01,27.64
5252954.0,0.35,0.01,9.31,-0.04,0.03,-0.01,27.73
5275954.0,0.31,0.0,9.17,-0.05,0.03,-0.01,27.68
5298953.0,0.35,0.03,9.23,-0.04,0.03,-0.01,27.78
5321954.0,0.41,0.04,9.23,-0.04,0.03,-0.01,27.68
5344953.0,0.29,0.04,9.24,-0.04,0.03,-0.01,27.78
5367954.0,0.35,0.04,9.14,-0.04,0.03,-0.01,27.64
5390954.0,0.34,0.01,9.23,-0.04,0.03,-0.01,27.64
5413954.0,0.34,0.0,9.28,-0.05,0.03,-0.01,27.82
5436954.0,0.35,0.02,9.18,-0.05,0.03,-0.01,27.64
5459954.0,0.3,-0.04,9.15,-0.04,0.03,-0.01,27.82
5482954.0,0.37,-0.06,9.24,-0.04,0.03,-0.01,27.59
5505954.0,0.29,-0.07,9.24,-0.05,0.03,-0.01,27.68
5528954.0,0.27,0.0,9.34,-0.04,0.03,-0.01,27.68
5551954.0,0.3,0.08,9.08,-0.05,0.03,-0.01,27.68
5574954.0,0.34,0.02,9.21,-0.04,0.03,-0.01,27.73
5597954.0,0.37,0.06,9.19,-0.05,0.03,-0.01,27.73
5620954.0,0.31,0.0,9.38,-0.04,0.03,-0.01,27.82
5643954.0,0.34,0.02,9.23,-0.05,0.03,-0.01,27.73
5666954.0,0.31,-0.03,9.31,-0.04,0.03,-0.01,27.68
5689954.0,0.35,0.01,9.14,-0.04,0.03,-0.01,27.68
5712954.0,0.35,0.01,9.32,-0.04,0.03,-0.01,27.59
5735954.0,0.34,0.09,9.2,-0.05,0.03,-0.0,27.68
5758953.0,0.31,0.04,9.12,-0.05,0.02,-0.01,27.78
5781954.0,0.32,-0.05,9.25,-0.04,0.03,-0.01,27.73
5804954.0,0.39,0.02,9.12,-0.04,0.03,-0.01,27.73
5827954.0,0.31,0.04,9.3,-0.05,0.03,-0.01,27.73
5850954.0,0.22,0.07,9.12,-0.05,0.03,-0.01,27.73
5873954.0,0.4,0.02,9.34,-0.04,0.02,-0.01,27.73
5896954.0,0.43,-0.05,9.17,-0.04,0.03,-0.01,27.82
5919954.0,0.26,0.11,9.23,-0.04,0.02,-0.01,27.68
5942953.0,0.28,0.12,9.13,-0.04,0.03,-0.01,27.78
5965953.0,0.36,0.01,9.18,-0.04,0.02,-0.01,27.78
5988954.0,0.4,-0.08,9.27,-0.05,0.03,-0.01,27.73
6011954.0,0.24,0.03,9.2,-0.04,0.02,-0.01,27.73
6034954.0,0.29,-0.0,9.24,-0.04,0.03,-0.01,27.73
6057954.0,0.35,-0.03,9.16,-0.04,0.02,-0.01,27.73
6080953.0,0.5,0.01,9.15,-0.05,0.03,-0.01,27.78
6103954.0,0.28,0.03,9.11,-0.04,0.02,-0.01,27.68
6126954.0,0.21,0.07,9.46,-0.05,0.03,-0.01,27.68
6149954.0,0.31,-0.05,8.98,-0.05,0.03,-0.01,27.68
6172954.0,0.46,-0.06,9.3,-0.04,0.03,-0.01,27.73
6195954.0,0.32,-0.07,9.25,-0.04,0.03,-0.0,27.73
6218954.0,0.22,0.11,9.08,-0.05,0.03,-0.01,27.73
6241954.0,0.2,0.04,9.23,-0.04,0.03,-0.01,27.82
6264954.0,0.41,-0.05,9.2,-0.05,0.03,-0.01,27.73
6287953.0,0.33,-0.03,9.17,-0.04,0.03,-0.01,27.78
6310954.0,0.25,0.09,9.22,-0.04,0.03,-0.01,27.68
6333954.0,0.31,-0.03,9.19,-0.04,0.03,-0.01,27.68
6356954.0,0.34,-0.09,9.27,-0.04,0.03,-0.01,27.68
6379954.0,0.26,-0.04,9.14,-0.04,0.03,-0.01,27.64
6402954.0,0.32,0.08,9.19,-0.04,0.03,-0.01,27.64
6425954.0,0.42,-0.03,9.14,-0.04,0.03,-0.01,27.64
6448954.0,0.27,-0.06,9.2,-0.04,0.03,-0.01,27.73
6471954.0,0.32,0.07,9.19,-0.04,0.03,-0.01,27.68
6494954.0,0.33,-0.02,9.16,-0.04,0.03,-0.01,27.68
6517954.0,0.29,-0.02,9.34,-0.04,0.03,-0.01,27.68
6540953.0,0.28,-0.01,9.27,-0.04,0.03,-0.01,27.78
6563953.0,0.32,0.02,9.12,-0.05,0.02,-0.01,27.78
6586954.0,0.33,-0.03,9.21,-0.05,0.03,-0.01,27.73
6609954.0,0.32,-0.01,9.28,-0.04,0.03,-0.01,27.73
6632954.0,0.29,0.05,9.31,-0.05,0.03,-0.01,27.73
6655954.0,0.33,0.01,9.17,-0.04,0.03,-0.01,27.64
6678954.0,0.34,0.03,9.19,-0.04,0.03,-0.01,27.64
6701954.0,0.32,-0.03,9.22,-0.05,0.03,-0.01,27.73
6724953.0,0.26,0.02,9.22,-0.04,0.03,-0.01,27.78
6747954.0,0.29,0.02,9.21,-0.04,0.03,-0.01,27.59
6770954.0,0.31,0.0,9.18,-0.04,0.03,-0.01,27.64
6793954.0,0.35,0.02,9.17,-0.04,0.03,-0.01,27.73
6816954.0,0.25,0.04,9.25,-0.04,0.03,-0.01,27.64
6839954.0,0.37,0.01,9.13,-0.05,0.03,-0.01,27.73
6862954.0,0.37,-0.02,9.22,-0.04,0.02,-0.01,27.73
6885954.0,0.37,0.06,9.25,-0.04,0.03,-0.01,27.68
6908954.0,0.26,-0.05,9.32,-0.04,0.03,-0.01,27.68
6931953.0,0.31,0.01,9.25,-0.04,0.03,-0.01,27.78
6954953.0,0.33,0.01,9.19,-0.05,0.03,-0.01,27.78
6977954.0,0.32,0.02,9.27,-0.04,0.03,-0.01,27.73
7000954.0,0.32,-0.0,9.17,-0.04,0.03,-0.01,27.73
7023954.0,0.39,0.0,9.14,-0.04,0.03,-0.01,27.73
7046954.0,0.36,0.01,9.22,-0.04,0.02,-0.01,27.73
7069954.0,0.31,0.03,9.27,-0.04,0.03,-0.01,27.73
7092953.0,0.25,0.03,9.14,-0.04,0.03,-0.01,27.78
7115954.0,0.36,-0.04,9.26,-0.04,0.03,-0.01,27.68
7138954.0,0.29,-0.01,9.18,-0.04,0.03,-0.01,27.68
7161953.0,0.3,0.06,9.24,-0.04,0.03,-0.01,27.78
7184954.0,0.28,0.0,9.27,-0.04,0.03,-0.01,27.64
7207954.0,0.33,-0.01,9.21,-0.04,0.03,-0.01,27.73
7230954.0,0.36,0.04,9.17,-0.04,0.03,-0.01,27.73
7253954.0,0.28,-0.01,9.27,-0.04,0.03,-0.01,27.64
7276954.0,0.33,0.02,9.29,-0.05,0.03,-0.01,27.68
7299954.0,0.29,0.03,9.23,-0.04,0.02,-0.01,27.68
7322954.0,0.32,0.06,9.24,-0.04,0.03,-0.01,27.68
7345953.0,0.28,-0.05,9.26,-0.05,0.03,-0.01,27.78
7368953.0,0.42,0.02,9.19,-0.05,0.03,-0.01,27.78
7391954.0,0.34,-0.01,9.23,-0.04,0.03,-0.01,27.64
7414954.0,0.32,0.02,9.23,-0.04,0.03,-0.0,27.64
7437954.0,0.27,-0.01,9.15,-0.05,0.03,-0.01,27.64
7460954.0,0.32,0.03,9.27,-0.04,0.03,-0.01,27.73
7483954.0,0.37,-0.0,9.22,-0.04,0.03,-0.01,27.64
7506954.0,0.34,0.03,9.25,-0.04,0.03,-0.01,27.73
7529954.0,0.32,0.11,9.22,-0.04,0.03,-0.01,27.68
7552954.0,0.32,0.06,9.15,-0.04,0.03,-0.01,27.68
7575954.0,0.35,0.02,9.22,-0.04,0.03,-0.01,27.73
7598954.0,0.32,-0.04,9.26,-0.04,0.03,-0.01,27.73
7621954.0,0.3,-0.03,9.23,-0.04,0.03,-0.01,27.73
7644954.0,0.31,0.05,9.22,-0.04,0.03,-0.01,27.64
7667954.0,0.28,-0.05,9.19,-0.05,0.02,-0.01,27.64
7690954.0,0.38,0.01,9.26,-0.04,0.03,-0.01,27.68
7713953.0,0.29,0.01,9.25,-0.04,0.03,-0.01,27.78
7736954.0,0.36,-0.01,9.29,-0.04,0.03,-0.01,27.68
7759954.0,0.36,0.04,9.18,-0.04,0.03,-0.01,27.68
7782954.0,0.35,-0.0,9.26,-0.04,0.03,-0.01,27.64
7805954.0,0.34,-0.0,9.2,-0.05,0.03,-0.01,27.73
7828954.0,0.27,0.03,9.24,-0.04,0.03,-0.01,27.64
7851954.0,0.39,0.05,9.28,-0.05,0.03,-0.01,27.73
7874954.0,0.3,0.02,9.23,-0.04,0.03,-0.01,27.68
7897954.0,0.39,0.02,9.14,-0.04,0.03,-0.01,27.68
7920954.0,0.31,0.0,9.21,-0.05,0.03,-0.01,27.68
7943953.0,0.37,-0.04,9.31,-0.04,0.03,-0.01,27.78
7966953.0,0.4,-0.02,9.26,-0.05,0.03,-0.01,27.78
7989954.0,0.3,0.01,9.22,-0.04,0.03,-0.01,27.73
8012954.0,0.3,0.05,9.19,-0.04,0.03,-0.01,27.73
8035954.0,0.35,-0.01,9.25,-0.04,0.02,-0.01,27.73
8058954.0,0.27,0.06,9.26,-0.05,0.03,-0.01,27.64
8081954.0,0.34,0.08,9.17,-0.04,0.03,-0.01,27.68
8104954.0,0.34,0.05,9.13,-0.04,0.03,-0.01,27.68
8127954.0,0.3,-0.0,9.17,-0.04,0.03,-0.01,27.68
8150954.0,0.29,0.02,9.19,-0.04,0.03,-0.01,27.68
8173954.0,0.33,0.01,9.18,-0.04,0.03,-0.01,27.73
8196954.0,0.31,0.02,9.14,-0.04,0.03,-0.01,27.64
8219954.0,0.28,-0.03,9.19,-0.04,0.03,-0.01,27.73
8242954.0,0.33,-0.03,9.26,-0.05,0.03,-0.01,27.73
8265954.0,0.38,-0.02,9.24,-0.04,0.03,-0.01,27.73
8288954.0,0.36,-0.04,9.24,-0.04,0.03,-0.01,27.64
8311953.0,0.29,-0.01,9.26,-0.04,0.03,-0.01,27.78
8334954.0,0.34,0.02,9.27,-0.04,0.03,-0.01,27.68
8357954.0,0.31,0.01,9.18,-0.04,0.03,-0.01,27.68
8380954.0,0.34,0.05,9.19,-0.04,0.03,-0.01,27.82
8403954.0,0.39,-0.0,9.13,-0.04,0.03,-0.01,27.64
8426954.0,0.36,0.0,9.31,-0.04,0.03,-0.01,27.73
8449954.0,0.31,0.04,9.17,-0.04,0.03,-0.01,27.64
8472954.0,0.36,-0.05,9.25,-0.04,0.03,-0.01,27.73
8495953.0,0.28,0.07,9.17,-0.04,0.03,-0.01,27.78
8518954.0,0.32,0.04,9.22,-0.04,0.02,-0.01,27.68
8541954.0,0.36,-0.01,9.23,-0.05,0.03,-0.01,27.68
8564954.0,0.31,0.06,9.14,-0.04,0.03,-0.01,27.68
8587954.0,0.26,-0.05,9.12,-0.04,0.03,-0.01,27.54
8610954.0,0.26,0.05,9.21,-0.04,0.03,-0.01,27.73
8633954.0,0.39,0.02,9.28,-0.04,0.03,-0.01,27.64
8656954.0,0.35,0.02,9.16,-0.04,0.03,-0.01,27.64
8679954.0,0.34,0.03,9.2,-0.05,0.03,-0.01,27.68
8702953.0,0.3,0.02,9.25,-0.04,0.03,-0.01,27.78
8725954.0,0.32,0.08,9.23,-0.04,0.03,-0.01,27.68
8748954.0,0.36,0.05,9.16,-0.04,0.03,-0.01,27.68
8771954.0,0.39,0.04,9.25,-0.04,0.03,-0.01,27.59
8794954.0,0.3,0.03,9.16,-0.04,0.03,-0.01,27.64
8817954.0,0.36,-0.03,9.18,-0.04,0.03,-0.01,27.64
8840954.0,0.34,-0.07,9.23,-0.04,0.03,-0.01,27.64
8863954.0,0.34,-0.04,9.2,-0.04,0.03,-0.01,27.64
8886953.0,0.32,0.01,9.15,-0.05,0.03,-0.01,27.78
8909953.0,0.33,0.02,9.2,-0.04,0.03,-0.01,27.78
8932954.0,0.33,-0.04,9.24,-0.05,0.03,-0.01,27.68
8955954.0,0.31,0.02,9.23,-0.04,0.03,-0.01,27.68
8978954.0,0.35,-0.05,9.24,-0.04,0.03,-0.01,27.73
9001954.0,0.3,0.08,9.21,-0.04,0.02,-0.01,27.73
9024954.0,0.33,0.04,9.18,-0.04,0.03,-0.01,27.64
9047954.0,0.38,0.06,9.12,-0.04,0.03,-0.01,27.73
9070954.0,0.32,0.02,9.2,-0.04,0.03,-0.01,27.73
9093954.0,0.3,-0.01,9.23,-0.04,0.03,-0.01,27.73
9116953.0,0.36,0.06,9.27,-0.04,0.03,-0.01,27.78
9139954.0,0.3,-0.01,9.11,-0.05,0.03,-0.01,27.68
9162954.0,0.3,-0.02,9.28,-0.04,0.03,-0.01,27.68
9185954.0,0.29,0.06,9.19,-0.05,0.03,-0.01,27.73
9208954.0,0.35,0.0,9.31,-0.04,0.03,-0.01,27.73
9231954.0,0.29,-0.06,9.25,-0.04,0.03,-0.01,27.73
9254954.0,0.3,-0.03,9.19,-0.05,0.03,-0.01,27.73
9277954.0,0.31,-0.03,9.21,-0.04,0.03,-0.01,27.68
9300954.0,0.34,-0.03,9.23,-0.04,0.03,-0.01,27.68
9323954.0,0.34,-0.01,9.2,-0.04,0.03,-0.01,27.68
9346953.0,0.36,-0.03,9.23,-0.04,0.03,-0.01,27.78
9369954.0,0.35,0.05,9.17,-0.05,0.03,-0.01,27.68
9392954.0,0.33,0.02,9.24,-0.05,0.02,-0.01,27.73
9415954.0,0.34,0.04,9.11,-0.05,0.03,-0.01,27.82
9438954.0,0.33,0.02,9.23,-0.05,0.03,-0.01,27.73
9461954.0,0.32,0.02,9.14,-0.04,0.03,-0.01,27.73
9484953.0,0.33,0.03,9.2,-0.04,0.03,-0.01,27.78
9507954.0,0.32,-0.03,9.21,-0.04,0.03,-0.01,27.68
9530954.0,0.36,0.0,9.23,-0.04,0.03,-0.01,27.68
9553953.0,0.39,-0.02,9.15,-0.04,0.03,-0.01,27.78
9576954.0,0.34,0.01,9.23,-0.04,0.03,-0.01,27.73
9599954.0,0.31,-0.03,9.24,-0.04,0.03,-0.01,27.73
9622954.0,0.39,-0.03,9.17,-0.04,0.03,-0.01,27.73
9645954.0,0.35,0.02,9.23,-0.04,0.03,-0.01,27.73
9668954.0,0.34,-0.0,9.22,-0.04,0.02,-0.01,27.73
9691954.0,0.27,0.0,9.08,-0.05,0.03,-0.01,27.68
9714954.0,0.34,0.0,9.27,-0.05,0.03,-0.01,27.68
9737954.0,0.35,0.04,9.24,-0.04,0.03,-0.01,27.68
9760953.0,0.33,0.01,9.2,-0.04,0.03,-0.01,27.78
9783954.0,0.28,0.01,9.16,-0.04,0.03,-0.01,27.64
9806954.0,0.33,-0.04,9.22,-0.05,0.03,-0.01,27.73
9829954.0,0.28,0.04,9.25,-0.04,0.03,-0.01,27.73
9852954.0,0.34,0.08,9.2,-0.04,0.03,-0.01,27.73
9875954.0,0.32,-0.04,9.25,-0.04,0.03,-0.01,27.54
9898954.0,0.3,-0.0,9.26,-0.04,0.02,-0.01,27.64
9921954.0,0.29,0.05,9.13,-0.04,0.03,-0.01,27.68
9944954.0,0.33,-0.03,9.21,-0.04,0.03,-0.01,27.68
9967954.0,0.36,-0.03,9.26,-0.04,0.02,-0.01,27.68
9990954.0,0.36,0.03,9.36,-0.04,0.03,-0.01,27.64
10013954.0,0.28,-0.0,9.29,-0.04,0.03,-0.01,27.73
10036954.0,0.33,0.05,9.25,-0.05,0.03,-0.01,27.64
10059954.0,0.26,0.07,9.16,-0.04,0.03,-0.01,27.64
10082954.0,0.35,0.03,9.26,-0.04,0.03,-0.01,27.68
10105954.0,0.36,-0.02,9.14,-0.04,0.02,-0.01,27.68
10128954.0,0.29,0.03,9.21,-0.04,0.03,-0.01,27.68
10151954.0,0.36,-0.05,9.16,-0.04,0.02,-0.01,27.68
10174954.0,0.4,-0.05,9.17,-0.04,0.03,-0.01,27.68
10197954.0,0.33,0.02,9.31,-0.04,0.03,-0.01,27.73
10220954.0,0.35,0.0,9.26,-0.04,0.03,-0.01,27.73
10243954.0,0.4,0.06,9.19,-0.04,0.03,-0.01,27.73
10266954.0,0.32,-0.03,9.2,-0.04,0.03,-0.01,27.64
10289953.0,0.32,0.01,9.23,-0.04,0.03,-0.01,27.78
10312953.0,0.34,0.0,9.12,-0.04,0.03,-0.01,27.78
10335953.0,0.35,0.01,9.17,-0.04,0.03,-0.01,27.78
10358954.0,0.34,0.05,9.26,-0.04,0.03,-0.01,27.68
10381954.0,0.35,0.08,9.16,-0.04,0.03,-0.01,27.73
10404954.0,0.34,-0.01,9.17,-0.05,0.03,-0.01,27.64
10427954.0,0.37,-0.0,9.26,-0.04,0.03,-0.01,27.73
10450954.0,0.34,0.02,9.2,-0.04,0.03,-0.01,27.73
10473954.0,0.32,0.05,9.2,-0.04,0.03,-0.01,27.73
10496954.0,0.35,0.03,9.27,-0.04,0.03,-0.01,27.68
10519954.0,0.32,-0.04,9.12,-0.04,0.03,-0.01,27.68
10542953.0,0.34,-0.0,9.19,-0.04,0.03,-0.01,27.78
10565954.0,0.41,0.05,9.18,-0.04,0.03,-0.01,27.59
10588954.0,0.32,-0.02,9.2,-0.05,0.03,-0.01,27.64
10611954.0,0.33,0.03,9.25,-0.05,0.03,-0.01,27.73
10634954.0,0.34,-0.03,9.27,-0.04,0.03,-0.01,27.73
10657954.0,0.39,0.02,9.23,-0.05,0.03,-0.01,27.73
10680954.0,0.31,0.05,9.2,-0.04,0.03,-0.01,27.64
10703954.0,0.31,0.02,9.15,-0.04,0.03,-0.01,27.73
10726953.0,0.32,0.04,9.18,-0.04,0.03,-0.01,27.78
10749954.0,0.32,0.01,9.25,-0.04,0.03,-0.01,27.68
10772954.0,0.36,0.02,9.26,-0.04,0.03,-0.01,27.68
10795954.0,0.3,0.04,9.2,-0.04,0.02,-0.01,27.73
10818954.0,0.34,0.04,9.22,-0.04,0.03,-0.01,27.64
10841954.0,0.3,0.02,9.22,-0.05,0.03,-0.01,27.73
10864954.0,0.37,0.02,9.15,-0.04,0.03,-0.01,27.64
10887953.0,0.29,0.05,9.18,-0.04,0.03,-0.01,27.78
10910954.0,0.27,0.01,9.2,-0.04,0.03,-0.01,27.68
10933954.0,0.33,-0.03,9.14,-0.04,0.03,-0.01,27.59
10956954.0,0.3,0.09,9.17,-0.04,0.03,-0.01,27.68
10979954.0,0.36,-0.01,9.19,-0.05,0.02,-0.01,27.73
11002954.0,0.33,-0.03,9.2,-0.04,0.03,-0.01,27.73
11025954.0,0.3,-0.03,9.21,-0.04,0.03,-0.01,27.73
11048954.0,0.38,-0.02,9.21,-0.04,0.03,-0.01,27.73
11071954.0,0.31,-0.03,9.19,-0.04,0.03,-0.01,27.73
11094954.0,0.3,0.05,9.17,-0.04,0.02,-0.01,27.68
11117954.0,0.25,-0.03,9.12,-0.04,0.02,-0.01,27.68
11140954.0,0.29,0.0,9.29,-0.04,0.03,-0.01,27.68
11163954.0,0.31,0.01,9.12,-0.04,0.02,-0.01,27.59
11186954.0,0.34,-0.02,9.21,-0.04,0.03,-0.01,27.73
11209954.0,0.26,0.02,9.2,-0.04,0.03,-0.01,27.64
11232954.0,0.29,-0.03,9.2,-0.04,0.03,-0.01,27.73
11255954.0,0.38,0.0,9.22,-0.05,0.03,-0.01,27.73
11278954.0,0.36,-0.01,9.21,-0.04,0.03,-0.01,27.73
11301954.0,0.36,-0.02,9.18,-0.04,0.03,-0.01,27.68
11324953.0,0.38,-0.0,9.17,-0.05,0.03,-0.01,27.78
11347954.0,0.29,-0.06,9.21,-0.04,0.03,-0.01,27.68
11370954.0,0.31,0.01,9.23,-0.05,0.03,-0.01,27.68
11393954.0,0.36,0.06,9.24,-0.04,0.03,-0.01,27.73
11416954.0,0.36,0.0,9.25,-0.04,0.02,-0.01,27.73
11439954.0,0.32,0.02,9.22,-0.04,0.03,-0.01,27.73
11462954.0,0.38,0.0,9.13,-0.04,0.03,-0.01,27.73
11485954.0,0.32,-0.01,9.16,-0.04,0.03,-0.01,27.64
11508954.0,0.33,-0.0,9.21,-0.04,0.03,-0.01,27.64
11531954.0,0.31,0.07,9.26,-0.04,0.03,-0.01,27.68
11554953.0,0.29,0.02,9.17,-0.05,0.03,-0.01,27.78
11577953.0,0.28,0.01,9.27,-0.04,0.03,-0.01,27.78
11600954.0,0.32,0.01,9.24,-0.04,0.03,-0.01,27.64
11623954.0,0.36,0.06,9.2,-0.04,0.03,-0.01,27.73
11646954.0,0.33,0.03,9.31,-0.05,0.03,-0.01,27.73
11669954.0,0.32,-0.03,9.28,-0.05,0.02,-0.01,27.64
11692954.0,0.31,-0.05,9.24,-0.04,0.03,-0.01,27.59
11715954.0,0.33,-0.0,9.24,-0.05,0.03,-0.01,27.68
11738954.0,0.35,0.04,9.18,-0.04,0.03,-0.01,27.68
11761953.0,0.35,0.03,9.16,-0.04,0.03,-0.01,27.78
11784954.0,0.36,0.01,9.22,-0.04,0.03,-0.01,27.73
11807954.0,0.33,0.05,9.2,-0.04,0.03,-0.01,27.64
11830954.0,0.31,0.03,9.14,-0.04,0.03,-0.01,27.73
11853954.0,0.34,-0.02,9.2,-0.04,0.03,-0.01,27.82
11876954.0,0.36,0.04,9.27,-0.04,0.03,-0.01,27.73
11899953.0,0.34,0.02,9.2,-0.04,0.03,-0.01,27.78
11922954.0,0.33,0.02,9.18,-0.04,0.03,-0.01,27.68
11945954.0,0.32,0.07,9.03,-0.04,0.03,-0.01,27.68
11968954.0,0.32,-0.04,9.18,-0.04,0.03,-0.01,27.68
11991954.0,0.3,0.01,9.23,-0.04,0.03,-0.01,27.73
12014954.0,0.32,0.01,9.12,-0.04,0.02,-0.01,27.73
12037954.0,0.3,-0.05,9.31,-0.05,0.03,-0.01,27.64
12060954.0,0.33,0.0,9.06,-0.04,0.03,-0.01,27.73
12083954.0,0.29,0.06,9.25,-0.04,0.03,-0.01,27.68
12106954.0,0.34,0.04,9.21,-0.04,0.03,-0.01,27.68
12129953.0,0.28,0.03,9.21,-0.04,0.03,-0.01,27.78
12152954.0,0.26,0.03,9.29,-0.04,0.03,-0.01,27.68
12175954.0,0.36,0.04,9.26,-0.04,0.03,-0.01,27.68
12198954.0,0.36,0.03,9.25,-0.04,0.03,-0.01,27.64
12221954.0,0.26,0.06,9.17,-0.04,0.03,-0.01,27.82
12244954.0,0.36,0.03,9.18,-0.04,0.03,-0.01,27.73
12267954.0,0.31,-0.01,9.28,-0.04,0.03,-0.01,27.73
12290954.0,0.33,-0.02,9.21,-0.04,0.03,-0.01,27.64
12313954.0,0.33,0.03,9.14,-0.04,0.03,-0.01,27.73
12336954.0,0.32,0.0,9.23,-0.04,0.03,-0.01,27.59
12359954.0,0.35,-0.02,9.28,-0.05,0.03,-0.01,27.59
12382953.0,0.37,0.06,9.23,-0.05,0.03,-0.01,27.78
12405954.0,0.28,0.03,9.25,-0.05,0.03,-0.01,27.73
12428954.0,0.29,0.01,9.29,-0.04,0.03,-0.01,27.82
12451954.0,0.31,0.01,9.16,-0.04,0.03,-0.01,27.73
12474954.0,0.32,-0.0,9.31,-0.04,0.03,-0.01,27.73
12497953.0,0.33,0.05,9.21,-0.04,0.03,-0.01,27.78
12520954.0,0.34,0.07,9.28,-0.04,0.03,-0.01,27.59
12543954.0,0.38,0.01,9.23,-0.04,0.03,-0.01,27.68
12566954.0,0.29,0.01,9.21,-0.04,0.03,-0.01,27.68
12589954.0,0.3,-0.01,9.21,-0.04,0.03,-0.01,27.73
12612954.0,0.33,-0.05,9.11,-0.04,0.03,-0.01,27.73
12635954.0,0.32,0.02,9.26,-0.04,0.03,-0.01,27.54
12658954.0,0.34,-0.01,9.24,-0.05,0.03,-0.01,27.64
12681954.0,0.36,0.0,9.2,-0.04,0.03,-0.01,27.82
12704954.0,0.36,0.03,9.11,-0.04,0.03,-0.01,27.68
12727953.0,0.27,0.06,9.28,-0.04,0.03,-0.01,27.78
12750954.0,0.36,0.01,9.18,-0.04,0.03,-0.01,27.68
12773953.0,0.25,0.02,9.27,-0.04,0.03,-0.01,27.78
12796954.0,0.3,0.07,9.26,-0.05,0.03,-0.01,27.73
12819954.0,0.34,0.02,9.2,-0.05,0.03,-0.01,27.73
12842954.0,0.33,0.01,9.11,-0.05,0.03,-0.01,27.64
12865954.0,0.3,0.05,9.18,-0.04,0.03,-0.01,27.73
12888954.0,0.35,0.0,9.23,-0.04,0.03,-0.01,27.68
12911953.0,0.29,-0.03,9.21,-0.04,0.03,-0.01,27.78
12934954.0,0.29,0.01,9.28,-0.05,0.03,-0.01,27.68
12957954.0,0.23,0.12,9.16,-0.05,0.03,-0.01,27.68
12980954.0,0.33,-0.0,9.16,-0.04,0.02,-0.01,27.68
13003954.0,0.3,-0.05,9.31,-0.04,0.03,-0.01,27.73
13026954.0,0.34,0.04,9.21,-0.04,0.03,-0.01,27.64
13049954.0,0.26,0.08,9.28,-0.05,0.03,-0.01,27.73
13072954.0,0.35,-0.06,9.22,-0.04,0.03,-0.01,27.73
13095954.0,0.3,0.01,9.29,-0.05,0.02,-0.01,27.64
13118954.0,0.32,0.03,9.26,-0.04,0.03,-0.01,27.73
13141954.0,0.34,0.03,9.19,-0.04,0.03,-0.01,27.68
13164953.0,0.33,0.02,9.03,-0.04,0.03,-0.01,27.78
13187954.0,0.32,0.06,9.25,-0.04,0.03,-0.01,27.73
13210954.0,0.33,0.08,9.3,-0.04,0.03,-0.01,27.64
13233954.0,0.31,0.04,9.48,-0.04,0.03,-0.01,27.73
13256954.0,0.34,-0.08,9.14,-0.03,0.03,-0.01,27.73
13279954.0,0.26,-0.03,9.28,-0.04,0.03,-0.01,27.73
13302954.0,0.33,-0.04,9.01,-0.04,0.02,-0.01,27.68
13325953.0,0.42,0.11,9.37,-0.04,0.03,-0.01,27.78
13348953.0,0.26,0.0,9.21,-0.04,0.03,-0.01,27.78
13371954.0,0.31,-0.02,9.06,-0.04,0.03,-0.01,27.68
13394954.0,0.3,-0.08,9.31,-0.04,0.03,-0.01,27.73
13417954.0,0.39,0.1,9.23,-0.05,0.03,-0.01,27.73
13440954.0,0.26,0.01,9.21,-0.04,0.02,-0.01,27.73
13463954.0,0.33,0.05,9.16,-0.04,0.03,-0.01,27.64
13486954.0,0.29,0.0,9.26,-0.04,0.03,-0.01,27.68
13509953.0,0.39,0.01,9.19,-0.04,0.03,-0.01,27.78
13532954.0,0.33,-0.02,9.21,-0.04,0.03,-0.01,27.68
13555954.0,0.33,-0.02,9.19,-0.04,0.03,-0.01,27.68
13578954.0,0.29,0.01,9.2,-0.04,0.03,-0.01,27.68
13601954.0,0.36,-0.03,9.23,-0.05,0.03,-0.01,27.64
13624954.0,0.33,0.0,9.27,-0.05,0.03,-0.01,27.64
13647954.0,0.27,0.0,9.41,-0.05,0.03,-0.01,27.73
13670954.0,0.36,0.01,9.17,-0.05,0.03,-0.01,27.73
13693953.0,0.3,-0.07,9.36,-0.04,0.03,-0.01,27.78
13716953.0,0.33,0.08,9.17,-0.05,0.03,-0.01,27.78
13739953.0,0.29,0.02,9.46,-0.04,0.03,-0.01,27.78
13762954.0,0.39,0.1,9.25,-0.05,0.02,-0.01,27.68
13785953.0,0.38,0.03,9.15,-0.04,0.03,-0.01,27.78
13808954.0,0.28,-0.01,9.07,-0.05,0.03,-0.01,27.64
13831954.0,0.31,0.01,9.4,-0.04,0.03,-0.01,27.73
13854954.0,0.32,-0.01,9.28,-0.05,0.03,-0.0,27.73
13877954.0,0.35,0.04,9.27,-0.05,0.03,-0.01,27.73
13900954.0,0.27,0.03,9.21,-0.04,0.03,-0.01,27.73
13923953.0,0.35,-0.01,9.22,-0.04,0.03,-0.01,27.78
13946954.0,0.35,-0.01,9.27,-0.05,0.02,-0.01,27.68
13969954.0,0.34,0.0,9.21,-0.05,0.03,-0.01,27.68
13992954.0,0.32,0.04,9.5,-0.05,0.02,-0.01,27.64
14015954.0,0.27,-0.0,9.17,-0.05,0.03,-0.01,27.73
14038954.0,0.39,0.07,9.31,-0.04,0.02,-0.01,27.64
14061954.0,0.3,-0.01,9.11,-0.04,0.03,-0.01,27.64
14084954.0,0.32,0.04,9.28,-0.04,0.03,-0.01,27.82
14107954.0,0.24,-0.08,9.3,-0.05,0.03,-0.01,27.68
14130954.0,0.3,0.05,9.28,-0.04,0.02,-0.01,27.59
14153953.0,0.29,-0.0,9.26,-0.04,0.02,-0.01,27.78
14176954.0,0.33,0.05,9.14,-0.04,0.03,-0.01,27.68
14199954.0,0.35,0.06,9.25,-0.04,0.03,-0.01,27.73
14222954.0,0.34,-0.01,9.16,-0.04,0.03,-0.01,27.73
14245954.0,0.32,-0.04,9.31,-0.04,0.03,-0.01,27.82
14268954.0,0.36,-0.01,9.18,-0.04,0.03,-0.01,27.73
14291953.0,0.35,0.04,9.21,-0.04,0.03,-0.01,27.78
14314954.0,0.31,0.01,9.23,-0.04,0.03,-0.01,27.68
14337954.0,0.28,-0.03,9.17,-0.04,0.03,-0.01,27.68
14360954.0,0.29,-0.03,9.3,-0.04,0.03,-0.01,27.68
14383954.0,0.31,-0.02,9.15,-0.04,0.03,-0.01,27.68
14406954.0,0.36,-0.03,9.33,-0.04,0.03,-0.01,27.73
14429954.0,0.33,0.04,9.19,-0.04,0.03,-0.01,27.73
14452954.0,0.39,0.02,9.21,-0.04,0.02,-0.01,27.73
14475954.0,0.28,0.0,9.23,-0.04,0.03,-0.01,27.73
14498954.0,0.32,0.08,9.14,-0.04,0.03,-0.01,27.59
14521954.0,0.27,-0.02,9.23,-0.04,0.03,-0.01,27.68
14544954.0,0.37,-0.0,9.3,-0.04,0.03,-0.01,27.59
14567953.0,0.31,-0.02,9.18,-0.04,0.03,-0.01,27.78
14590954.0,0.32,0.02,9.24,-0.04,0.03,-0.01,27.73
14613954.0,0.3,-0.02,9.23,-0.04,0.03,-0.01,27.73
14636954.0,0.3,0.03,9.28,-0.05,0.03,-0.01,27.64
14659954.0,0.31,-0.04,9.22,-0.05,0.03,-0.01,27.64
14682954.0,0.36,-0.0,9.2,-0.04,0.03,-0.01,27.82
14705954.0,0.34,-0.02,9.18,-0.04,0.03,-0.01,27.73
14728954.0,0.34,-0.03,9.29,-0.04,0.03,-0.01,27.68
14751954.0,0.29,0.02,9.14,-0.05,0.03,-0.01,27.68
14774954.0,0.38,-0.02,9.25,-0.04,0.03,-0.01,27.68
14797954.0,0.34,0.02,9.3,-0.04,0.03,-0.01,27.73
14820954.0,0.3,-0.01,9.17,-0.04,0.03,-0.01,27.73
14843954.0,0.37,0.04,9.25,-0.04,0.02,-0.01,27.73
14866954.0,0.34,-0.03,9.16,-0.05,0.03,-0.01,27.64
14889953.0,0.28,-0.02,9.17,-0.04,0.03,-0.01,27.78
14912953.0,0.28,0.0,9.2,-0.04,0.02,-0.01,27.78
14935953.0,0.37,-0.03,9.25,-0.04,0.03,-0.01,27.78
14958954.0,0.33,0.01,9.26,-0.04,0.02,-0.01,27.68
14981953.0,0.37,0.03,9.22,-0.04,0.03,-0.01,27.78
15004954.0,0.33,0.05,9.27,-0.04,0.03,-0.01,27.73
15027954.0,0.28,0.0,9.17,-0.04,0.03,-0.01,27.64
15050954.0,0.35,-0.02,9.19,-0.04,0.03,-0.01,27.73
15073954.0,0.34,0.05,9.12,-0.04,0.03,-0.01,27.73
15096954.0,0.32,-0.02,9.17,-0.04,0.03,-0.01,27.68
15119954.0,0.32,0.05,9.1,-0.04,0.02,-0.01,27.68
15142954.0,0.37,0.02,9.27,-0.04,0.03,-0.01,27.68
15165954.0,0.34,-0.01,9.25,-0.04,0.03,-0.01,27.68
15188954.0,0.28,-0.0,9.28,-0.04,0.03,-0.01,27.68
15211954.0,0.23,-0.0,9.19,-0.04,0.03,-0.01,27.73
15234954.0,0.33,0.06,9.2,-0.04,0.03,-0.01,27.73
15257954.0,0.36,0.03,9.21,-0.04,0.03,-0.01,27.73
15280954.0,0.36,-0.0,9.26,-0.04,0.03,-0.01,27.73
15303953.0,0.3,0.04,9.22,-0.04,0.03,-0.01,27.78
15326954.0,0.27,-0.02,9.33,-0.05,0.03,-0.01,27.59
15349953.0,0.29,-0.05,9.22,-0.04,0.03,-0.01,27.78
15372953.0,0.36,0.08,9.25,-0.04,0.03,-0.01,27.78
15395954.0,0.35,0.01,9.21,-0.04,0.03,-0.01,27.64
15418954.0,0.27,0.07,9.16,-0.04,0.03,-0.01,27.73
15441954.0,0.27,0.0,9.15,-0.04,0.03,-0.01,27.64
15464954.0,0.37,-0.04,9.23,-0.04,0.03,-0.01,27.73
15487954.0,0.31,0.03,9.18,-0.05,0.03,-0.01,27.64
15510954.0,0.29,-0.01,9.18,-0.04,0.03,-0.01,27.64
15533954.0,0.33,0.04,9.25,-0.04,0.03,-0.01,27.68
15556954.0,0.34,-0.0,9.22,-0.04,0.02,-0.01,27.68
15579954.0,0.31,0.04,9.2,-0.04,0.03,-0.01,27.68
15602954.0,0.4,0.02,9.2,-0.04,0.03,-0.01,27.73
15625954.0,0.34,0.01,9.18,-0.04,0.03,-0.01,27.73
15648954.0,0.3,0.06,9.22,-0.04,0.03,-0.01,27.73
15671954.0,0.31,-0.08,9.2,-0.04,0.03,-0.01,27.64
15694953.0,0.31,-0.1,9.13,-0.04,0.03,-0.01,27.78
15717953.0,0.39,0.01,9.12,-0.05,0.02,-0.01,27.78
15740954.0,0.28,0.07,9.15,-0.05,0.03,-0.01,27.68
15763954.0,0.37,0.04,9.29,-0.04,0.03,-0.01,27.68
15786954.0,0.33,0.0,9.25,-0.05,0.03,-0.01,27.68
15809954.0,0.28,0.04,9.22,-0.04,0.03,-0.01,27.73
15832954.0,0.37,0.05,9.18,-0.04,0.03,-0.01,27.64
15855954.0,0.3,-0.03,9.3,-0.04,0.03,-0.01,27.64
15878954.0,0.35,0.0,9.31,-0.05,0.03,-0.01,27.73
15901954.0,0.3,-0.03,9.16,-0.04,0.03,-0.01,27.68
15924954.0,0.29,-0.01,9.28,-0.05,0.03,-0.01,27.68
15947954.0,0.33,-0.05,9.22,-0.04,0.03,-0.01,27.68
15970954.0,0.29,0.02,9.29,-0.04,0.03,-0.01,27.68
15993954.0,0.37,-0.02,9.29,-0.04,0.03,-0.01,27.73
16016954.0,0.32,0.05,9.22,-0.04,0.03,-0.01,27.73
16039954.0,0.31,0.0,9.34,-0.04,0.03,-0.01,27.73
16062954.0,0.36,0.03,9.25,-0.04,0.03,-0.01,27.64
16085954.0,0.33,0.0,9.26,-0.04,0.02,-0.01,27.73
16108953.0,0.28,0.01,9.12,-0.04,0.03,-0.01,27.78
16131953.0,0.34,0.01,9.2,-0.04,0.03,-0.01,27.78
16154953.0,0.34,0.0,9.21,-0.04,0.03,-0.01,27.78
16177953.0,0.35,0.08,9.2,-0.04,0.03,-0.01,27.78
16200954.0,0.33,0.0,9.24,-0.04,0.03,-0.01,27.73
16223954.0,0.34,-0.02,9.15,-0.04,0.03,-0.01,27.73
16246954.0,0.27,-0.0,9.12,-0.04,0.03,-0.01,27.82
16269954.0,0.39,-0.0,9.2,-0.04,0.03,-0.01,27.73
16292954.0,0.32,-0.02,9.27,-0.04,0.03,-0.01,27.73
16315954.0,0.33,0.04,9.26,-0.04,0.03,-0.01,27.73
16338953.0,0.34,0.02,9.22,-0.04,0.03,-0.01,27.78
16361954.0,0.31,0.06,9.24,-0.04,0.03,-0.01,27.68
16384954.0,0.33,0.01,9.19,-0.04,0.03,-0.01,27.68
16407954.0,0.35,-0.02,9.26,-0.04,0.03,-0.01,27.73
16430954.0,0.38,-0.04,9.24,-0.04,0.03,-0.01,27.64
16453954.0,0.32,-0.03,9.25,-0.04,0.03,-0.01,27.73
16476954.0,0.32,0.0,9.13,-0.04,0.03,-0.01,27.73
16499954.0,0.29,0.03,9.14,-0.04,0.03,-0.01,27.68
16522954.0,0.39,-0.03,9.26,-0.04,0.03,-0.01,27.59
16545953.0,0.38,0.02,9.21,-0.05,0.03,-0.01,27.78
16568954.0,0.34,0.06,9.26,-0.04,0.03,-0.01,27.68
16591954.0,0.35,-0.07,9.22,-0.04,0.03,-0.01,27.68
16614954.0,0.28,-0.05,9.24,-0.04,0.03,-0.01,27.64
16637954.0,0.34,0.0,9.16,-0.04,0.03,-0.01,27.64
16660954.0,0.28,0.0,9.21,-0.04,0.03,-0.01,27.64
16683954.0,0.36,0.04,9.2,-0.04,0.03,-0.01,27.73
16706954.0,0.29,-0.01,9.14,-0.04,0.03,-0.01,27.68
16729954.0,0.34,-0.05,9.34,-0.04,0.03,-0.01,27.68
16752953.0,0.38,-0.01,9.24,-0.05,0.03,-0.01,27.78
16775954.0,0.25,0.06,9.23,-0.04,0.02,-0.01,27.68
16798954.0,0.31,-0.01,9.19,-0.04,0.03,-0.01,27.73
16821954.0,0.34,0.04,9.17,-0.04,0.03,-0.01,27.73
16844954.0,0.34,-0.0,9.27,-0.04,0.03,-0.01,27.64
16867954.0,0.29,-0.02,9.1,-0.04,0.03,-0.01,27.73
16890954.0,0.3,-0.01,9.24,-0.04,0.03,-0.01,27.64
16913953.0,0.33,0.0,9.24,-0.04,0.03,-0.01,27.78
16936954.0,0.32,0.03,9.13,-0.04,0.02,-0.01,27.68
16959954.0,0.28,0.05,9.17,-0.05,0.02,-0.01,27.68
16982954.0,0.33,0.02,9.23,-0.05,0.03,-0.01,27.68
17005954.0,0.31,-0.03,9.14,-0.04,0.03,-0.01,27.73
17028954.0,0.29,-0.03,9.24,-0.04,0.03,-0.01,27.73
17051954.0,0.27,-0.04,9.15,-0.04,0.03,-0.01,27.73
17074954.0,0.34,0.04,9.18,-0.04,0.03,-0.01,27.73
17097954.0,0.34,0.0,9.24,-0.04,0.03,-0.01,27.64
17120954.0,0.33,-0.01,9.22,-0.04,0.03,-0.01,27.73
17143954.0,0.36,0.06,9.35,-0.05,0.03,-0.01,27.68
17166954.0,0.36,0.04,9.33,-0.04,0.03,-0.01,27.68
17189953.0,0.28,0.03,9.22,-0.04,0.03,-0.01,27.78
17212954.0,0.37,-0.01,9.15,-0.05,0.03,-0.01,27.73
17235954.0,0.41,-0.02,9.23,-0.05,0.03,-0.01,27.73
17258954.0,0.32,-0.01,9.25,-0.04,0.03,-0.01,27.73
17281954.0,0.35,0.02,9.24,-0.05,0.03,-0.01,27.73
17304953.0,0.34,0.05,9.2,-0.04,0.03,-0.01,27.78
17327953.0,0.29,0.01,9.23,-0.04,0.03,-0.01,27.78
17350954.0,0.29,-0.02,9.22,-0.04,0.03,-0.01,27.59
17373953.0,0.33,0.01,9.21,-0.04,0.03,-0.01,27.78
17396954.0,0.37,0.04,9.19,-0.04,0.03,-0.01,27.64
17419954.0,0.3,0.04,9.15,-0.04,0.03,-0.01,27.64
17442954.0,0.27,0.01,9.16,-0.05,0.03,-0.01,27.73
17465954.0,0.33,0.03,9.22,-0.04,0.03,-0.01,27.64
17488954.0,0.3,0.03,9.18,-0.04,0.03,-0.01,27.64
17511954.0,0.31,0.07,9.22,-0.04,0.03,-0.01,27.68
17534953.0,0.37,-0.01,9.23,-0.05,0.03,-0.01,27.78
17557954.0,0.35,-0.02,9.15,-0.04,0.02,-0.01,27.68
17580954.0,0.34,0.01,9.28,-0.05,0.02,-0.01,27.59
17603954.0,0.28,0.05,9.14,-0.04,0.03,-0.01,27.64
17626954.0,0.34,0.03,9.25,-0.04,0.03,-0.01,27.73
17649954.0,0.39,0.06,9.25,-0.04,0.03,-0.01,27.64
17672954.0,0.38,0.01,9.18,-0.04,0.03,-0.01,27.73
17695954.0,0.34,0.0,9.17,-0.04,0.03,-0.01,27.64
17718953.0,0.36,0.02,9.18,-0.04,0.03,-0.01,27.78
17741954.0,0.32,-0.02,9.19,-0.04,0.03,-0.01,27.68
17764953.0,0.4,0.01,9.22,-0.04,0.03,-0.01,27.78
17787954.0,0.31,-0.05,9.24,-0.04,0.03,-0.01,27.68
17810954.0,0.32,0.02,9.29,-0.04,0.02,-0.01,27.73
17833954.0,0.37,0.08,9.27,-0.04,0.02,-0.01,27.73
17856954.0,0.23,-0.01,9.29,-0.04,0.03,-0.01,27.64
17879954.0,0.37,-0.02,9.22,-0.04,0.02,-0.01,27.64
17902954.0,0.24,-0.03,9.24,-0.04,0.03,-0.01,27.64
17925954.0,0.29,0.04,9.2,-0.04,0.03,-0.01,27.73
17948954.0,0.34,-0.0,9.24,-0.04,0.03,-0.01,27.68
17971954.0,0.36,0.03,9.36,-0.04,0.03,-0.01,27.68
17994954.0,0.33,0.06,9.06,-0.04,0.03,-0.01,27.68
18017954.0,0.34,0.01,9.21,-0.04,0.03,-0.01,27.64
18040954.0,0.31,-0.0,9.12,-0.04,0.03,-0.01,27.64
18063954.0,0.38,-0.01,9.28,-0.04,0.02,-0.01,27.73
18086954.0,0.32,0.03,9.21,-0.05,0.03,-0.01,27.73
18109953.0,0.33,-0.02,9.22,-0.04,0.03,-0.01,27.78
18132954.0,0.34,-0.04,9.2,-0.04,0.03,-0.01,27.68
18155954.0,0.32,-0.02,9.26,-0.04,0.02,-0.01,27.59
18178953.0,0.32,0.03,9.21,-0.04,0.03,-0.01,27.78
18201954.0,0.32,-0.0,9.13,-0.04,0.03,-0.01,27.73
18224954.0,0.28,0.05,9.19,-0.04,0.03,-0.01,27.73
18247954.0,0.36,0.01,9.22,-0.05,0.02,-0.01,27.64
18270954.0,0.46,0.0,9.18,-0.04,0.03,-0.01,27.64
18293954.0,0.34,0.05,9.24,-0.04,0.03,-0.01,27.73
18316954.0,0.32,0.04,9.11,-0.04,0.03,-0.01,27.68
18339954.0,0.3,-0.0,9.16,-0.04,0.03,-0.01,27.68
18362954.0,0.36,0.03,9.1,-0.05,0.02,-0.01,27.59
18385954.0,0.35,-0.01,9.19,-0.04,0.03,-0.01,27.68
18408954.0,0.27,-0.03,9.33,-0.04,0.02,-0.01,27.64
18431954.0,0.3,-0.0,9.17,-0.04,0.03,-0.01,27.64
18454954.0,0.3,-0.03,9.27,-0.05,0.03,-0.01,27.73
18477954.0,0.33,0.01,9.19,-0.04,0.03,-0.01,27.73
18500954.0,0.26,0.0,9.12,-0.05,0.03,-0.01,27.68
18523954.0,0.34,-0.0,9.27,-0.05,0.03,-0.01,27.68
18546953.0,0.35,0.02,9.24,-0.04,0.03,-0.01,27.78
18569954.0,0.27,0.02,9.2,-0.04,0.03,-0.01,27.68
18592954.0,0.3,0.06,9.24,-0.04,0.03,-0.01,27.68
18615954.0,0.35,0.02,9.17,-0.04,0.03,-0.01,27.73
18638954.0,0.3,-0.05,9.19,-0.04,0.03,-0.01,27.64
18661954.0,0.31,0.01,9.2,-0.04,0.02,-0.01,27.73
18684954.0,0.3,0.04,9.3,-0.04,0.03,-0.01,27.73
18707954.0,0.37,-0.06,9.32,-0.04,0.03,-0.01,27.64
18730954.0,0.31,-0.02,9.17,-0.04,0.03,-0.01,27.73
18753953.0,0.32,-0.02,9.12,-0.04,0.03,-0.01,27.78
18776954.0,0.37,0.0,9.2,-0.04,0.03,-0.01,27.68
18799954.0,0.33,0.07,9.23,-0.05,0.03,-0.01,27.73
18822954.0,0.3,0.06,9.27,-0.04,0.03,-0.01,27.73
18845954.0,0.28,-0.02,9.23,-0.04,0.03,-0.01,27.64
18868954.0,0.29,-0.01,9.17,-0.04,0.03,-0.01,27.64
18891954.0,0.3,0.03,9.25,-0.04,0.03,-0.01,27.64
18914953.0,0.36,-0.01,9.23,-0.04,0.03,-0.01,27.78
18937954.0,0.31,0.02,9.27,-0.04,0.03,-0.01,27.68
18960953.0,0.35,0.0,9.31,-0.04,0.03,-0.01,27.78
18983953.0,0.33,0.06,9.2,-0.04,0.03,-0.01,27.78
19006954.0,0.34,0.05,9.26,-0.04,0.03,-0.01,27.73
19029954.0,0.37,0.11,9.19,-0.05,0.03,-0.01,27.73
19052954.0,0.34,-0.07,9.17,-0.04,0.03,-0.01,27.73
19075954.0,0.33,0.02,9.21,-0.05,0.03,-0.01,27.73
19098954.0,0.37,0.04,9.21,-0.04,0.03,-0.01,27.73
19121954.0,0.29,0.01,9.33,-0.04,0.03,-0.01,27.68
19144953.0,0.32,-0.03,9.3,-0.04,0.03,-0.01,27.78
19167954.0,0.3,-0.02,9.21,-0.05,0.03,-0.01,27.68
19190954.0,0.33,0.03,9.17,-0.04,0.03,-0.01,27.68
19213954.0,0.34,0.06,9.17,-0.05,0.03,-0.01,27.73
19236954.0,0.39,0.03,9.27,-0.04,0.03,-0.01,27.73
19259954.0,0.35,-0.01,9.21,-0.04,0.03,-0.01,27.73
19282954.0,0.38,0.05,9.14,-0.04,0.03,-0.01,27.73
19305954.0,0.25,0.04,9.15,-0.04,0.03,-0.01,27.68
19328954.0,0.3,-0.01,9.17,-0.04,0.03,-0.01,27.68
19351954.0,0.33,-0.01,9.29,-0.04,0.03,-0.01,27.59
19374954.0,0.28,0.05,9.25,-0.05,0.03,-0.01,27.68
19397954.0,0.28,0.0,9.21,-0.04,0.03,-0.01,27.68
19420954.0,0.29,0.01,9.15,-0.04,0.03,-0.01,27.73
19443954.0,0.34,0.04,9.19,-0.04,0.03,-0.01,27.73
19466954.0,0.3,0.06,9.23,-0.04,0.03,-0.0,27.64
19489954.0,0.29,0.0,9.22,-0.04,0.03,-0.01,27.73
19512954.0,0.32,0.01,9.17,-0.04,0.03,-0.01,27.73
19535954.0,0.32,-0.03,9.27,-0.04,0.03,-0.01,27.64
19558954.0,0.28,0.0,9.2,-0.04,0.03,-0.01,27.68
19581954.0,0.33,0.04,9.25,-0.04,0.03,-0.01,27.68
19604954.0,0.32,-0.02,9.23,-0.04,0.03,-0.01,27.64
19627954.0,0.32,-0.02,9.21,-0.04,0.03,-0.01,27.64
19650954.0,0.34,0.01,9.28,-0.04,0.03,-0.01,27.73
19673954.0,0.28,-0.03,9.12,-0.04,0.03,-0.01,27.73
19696954.0,0.32,0.05,9.22,-0.04,0.03,-0.01,27.64
19719953.0,0.28,0.06,9.29,-0.04,0.03,-0.01,27.78
19742954.0,0.37,-0.01,9.36,-0.05,0.03,-0.01,27.68
19765954.0,0.38,0.08,9.08,-0.04,0.03,-0.01,27.68
19788954.0,0.37,0.0,9.26,-0.04,0.02,-0.01,27.68
19811954.0,0.34,-0.02,9.14,-0.04,0.03,-0.01,27.73
19834954.0,0.35,-0.01,9.21,-0.04,0.03,-0.01,27.73
19857954.0,0.36,0.04,9.27,-0.04,0.03,-0.01,27.73
19880954.0,0.28,0.03,9.29,-0.04,0.03,-0.01,27.73
19903954.0,0.31,0.06,9.15,-0.04,0.03,-0.01,27.68
19926954.0,0.35,0.01,9.2,-0.04,0.03,-0.01,27.68
19949954.0,0.26,-0.03,9.21,-0.04,0.03,-0.01,27.68
19972954.0,0.28,-0.04,9.13,-0.04,0.03,-0.01,27.68
19995954.0,0.32,0.02,9.31,-0.04,0.03,-0.01,27.68
20018954.0,0.31,0.03,9.27,-0.05,0.02,-0.01,27.64
20041954.0,0.35,0.05,9.17,-0.04,0.03,-0.01,27.64
20064954.0,0.3,0.02,9.28,-0.04,0.02,-0.01,27.73
20087954.0,0.33,0.01,9.09,-0.04,0.03,-0.01,27.64
20110954.0,0.37,-0.02,9.12,-0.04,0.03,-0.01,27.87
20133953.0,0.32,0.06,9.25,-0.04,0.02,-0.01,27.78
20156954.0,0.35,0.02,9.31,-0.04,0.03,-0.01,27.68
20179954.0,0.32,0.04,9.2,-0.04,0.03,-0.01,27.68
20202954.0,0.37,0.06,9.16,-0.04,0.03,-0.01,27.64
20225954.0,0.36,-0.01,9.13,-0.04,0.03,-0.01,27.64
20248954.0,0.34,0.05,9.29,-0.04,0.03,-0.01,27.73
20271954.0,0.28,0.02,9.21,-0.05,0.03,-0.01,27.73
20294954.0,0.39,0.02,9.17,-0.04,0.03,-0.01,27.64
20317954.0,0.34,-0.01,9.24,-0.04,0.03,-0.01,27.73
20340954.0,0.33,0.05,9.17,-0.04,0.03,-0.01,27.68
20363954.0,0.32,0.01,9.16,-0.04,0.03,-0.01,27.68
20386954.0,0.34,0.03,9.26,-0.04,0.03,-0.01,27.68
20409954.0,0.28,0.01,9.26,-0.04,0.03,-0.01,27.73
20432954.0,0.3,0.05,9.26,-0.04,0.03,-0.01,27.64
20455954.0,0.23,-0.03,9.23,-0.04,0.03,-0.01,27.73
20478954.0,0.22,-0.02,9.29,-0.04,0.03,-0.01,27.64
20501954.0,0.3,0.04,9.18,-0.05,0.03,-0.01,27.73
20524954.0,0.37,-0.04,9.22,-0.04,0.03,-0.01,27.68
20547954.0,0.4,0.06,9.15,-0.04,0.03,-0.01,27.68
20570954.0,0.31,-0.01,9.19,-0.04,0.03,-0.0,27.68
20593954.0,0.29,-0.01,9.21,-0.04,0.03,-0.01,27.87
20616954.0,0.33,-0.01,9.27,-0.04,0.03,-0.01,27.73
20639954.0,0.34,0.04,9.22,-0.04,0.03,-0.01,27.73
20662954.0,0.33,-0.01,9.25,-0.04,0.02,-0.01,27.64
20685954.0,0.3,-0.03,9.19,-0.04,0.03,-0.01,27.73
20708954.0,0.37,0.01,9.15,-0.04,0.03,-0.01,27.68
20731953.0,0.35,-0.03,9.22,-0.04,0.03,-0.01,27.78
20754954.0,0.33,0.01,9.22,-0.04,0.03,-0.01,27.68
20777953.0,0.33,0.04,9.19,-0.04,0.03,-0.01,27.78
20800953.0,0.35,0.01,9.24,-0.04,0.03,-0.01,27.78
20823954.0,0.36,0.01,9.32,-0.05,0.03,-0.01,27.73
20846954.0,0.31,0.01,9.2,-0.04,0.02,-0.01,27.73
20869954.0,0.36,0.01,9.17,-0.04,0.03,-0.01,27.64
20892954.0,0.31,0.02,9.26,-0.04,0.03,-0.01,27.73
20915953.0,0.3,0.02,9.14,-0.04,0.03,-0.01,27.78
20938954.0,0.33,-0.03,9.24,-0.04,0.03,-0.01,27.59
20961954.0,0.31,0.01,9.24,-0.05,0.03,-0.01,27.68
20984953.0,0.37,-0.0,9.21,-0.05,0.03,-0.01,27.78
21007954.0,0.33,-0.01,9.16,-0.05,0.03,-0.01,27.73
21030954.0,0.32,0.09,9.2,-0.04,0.03,-0.01,27.73
21053954.0,0.33,-0.01,9.28,-0.04,0.03,-0.01,27.73
21076954.0,0.34,0.0,9.26,-0.04,0.03,-0.01,27.64
21099954.0,0.31,0.04,9.25,-0.04,0.03,-0.01,27.64
21122954.0,0.32,-0.04,9.28,-0.04,0.03,-0.01,27.73
21145954.0,0.31,-0.02,9.16,-0.04,0.03,-0.01,27.68
21168954.0,0.39,-0.04,9.27,-0.04,0.03,-0.01,27.68
21191954.0,0.39,0.03,9.26,-0.05,0.03,-0.01,27.68
21214954.0,0.35,0.04,9.28,-0.04,0.03,-0.01,27.73
21237954.0,0.35,-0.05,9.14,-0.04,0.03,-0.01,27.73
21260954.0,0.37,0.0,9.14,-0.05,0.03,-0.01,27.73
21283954.0,0.32,0.03,9.24,-0.04,0.03,-0.01,27.64
21306954.0,0.34,-0.0,9.21,-0.04,0.03,-0.01,27.68
21329954.0,0.31,0.05,9.17,-0.04,0.03,-0.01,27.68
21352953.0,0.32,0.06,9.24,-0.05,0.03,-0.01,27.78
21375953.0,0.28,-0.02,9.19,-0.04,0.03,-0.01,27.78
21398953.0,0.33,0.02,9.13,-0.04,0.03,-0.01,27.78
21421954.0,0.34,-0.02,9.22,-0.04,0.03,-0.01,27.64
21444954.0,0.32,0.05,9.23,-0.05,0.03,-0.01,27.73
21467954.0,0.32,-0.08,9.19,-0.04,0.02,-0.01,27.73
21490954.0,0.3,0.03,9.27,-0.04,0.03,-0.01,27.73
21513954.0,0.36,-0.01,9.3,-0.04,0.03,-0.01,27.68
21536954.0,0.33,-0.04,9.33,-0.04,0.02,-0.01,27.68
21559953.0,0.34,0.03,9.2,-0.04,0.03,-0.01,27.78
21582954.0,0.33,-0.0,9.2,-0.04,0.03,-0.01,27.68
21605954.0,0.3,0.04,9.28,-0.04,0.03,-0.01,27.64
21628954.0,0.32,0.08,9.25,-0.04,0.03,-0.01,27.82
21651954.0,0.34,0.01,9.19,-0.04,0.03,-0.01,27.73
21674954.0,0.36,-0.02,9.35,-0.05,0.03,-0.01,27.73
21697954.0,0.38,-0.0,9.31,-0.04,0.03,-0.01,27.82
21720954.0,0.28,0.01,9.23,-0.04,0.03,-0.01,27.68
21743954.0,0.32,-0.03,9.23,-0.04,0.03,-0.01,27.68
21766953.0,0.37,-0.01,9.25,-0.04,0.03,-0.01,27.78
21789954.0,0.31,0.02,9.25,-0.05,0.03,-0.01,27.68
21812954.0,0.34,-0.03,9.17,-0.04,0.03,-0.01,27.73
21835954.0,0.32,-0.02,9.23,-0.04,0.03,-0.01,27.73
21858954.0,0.33,-0.01,9.2,-0.04,0.03,-0.01,27.73
21881954.0,0.33,-0.01,9.13,-0.04,0.03,-0.01,27.64
21904954.0,0.34,0.06,9.24,-0.04,0.03,-0.01,27.64
21927954.0,0.34,0.06,9.07,-0.04,0.03,-0.01,27.73
21950954.0,0.32,-0.0,9.22,-0.04,0.03,-0.01,27.68
21973953.0,0.32,-0.04,9.27,-0.04,0.03,-0.01,27.78
21996953.0,0.32,-0.06,9.24,-0.04,0.03,-0.01,27.78
22019954.0,0.32,-0.01,9.15,-0.04,0.03,-0.01,27.73
22042954.0,0.36,0.02,9.24,-0.04,0.03,-0.01,27.64
22065954.0,0.36,-0.07,9.22,-0.04,0.03,-0.01,27.73
22088954.0,0.36,0.05,9.26,-0.04,0.02,-0.01,27.73
22111953.0,0.27,0.06,9.2,-0.04,0.03,-0.01,27.78
22134954.0,0.35,-0.0,9.16,-0.04,0.03,-0.01,27.68
22157953.0,0.3,0.01,9.14,-0.04,0.03,-0.01,27.78
22180954.0,0.34,0.06,9.21,-0.04,0.03,-0.01,27.68
22203954.0,0.3,0.04,9.15,-0.04,0.03,-0.01,27.68
22226954.0,0.38,-0.01,9.28,-0.04,0.03,-0.01,27.73
22249954.0,0.34,0.03,9.26,-0.04,0.03,-0.01,27.64
22272954.0,0.36,0.0,9.25,-0.04,0.03,-0.01,27.64
22295954.0,0.3,-0.01,9.21,-0.04,0.02,-0.01,27.73
22318953.0,0.34,0.05,9.11,-0.05,0.03,-0.01,27.78
22341954.0,0.29,0.02,9.32,-0.04,0.03,-0.01,27.68
22364954.0,0.32,0.05,9.2,-0.04,0.03,-0.01,27.68
22387954.0,0.31,0.03,9.25,-0.04,0.03,-0.01,27.68
22410954.0,0.28,0.01,9.2,-0.04,0.03,-0.01,27.64
22433954.0,0.35,-0.02,9.2,-0.04,0.03,-0.01,27.64
22456954.0,0.32,0.04,9.21,-0.04,0.03,-0.01,27.73
22479954.0,0.29,0.0,9.26,-0.04,0.02,-0.01,27.73
22502954.0,0.39,0.02,9.2,-0.04,0.03,-0.01,27.73
22525954.0,0.32,0.04,9.22,-0.04,0.03,-0.01,27.68
22548953.0,0.34,-0.02,9.19,-0.04,0.03,-0.01,27.78
22571954.0,0.27,0.0,9.31,-0.04,0.03,-0.01,27.68
22594954.0,0.34,0.01,9.2,-0.04,0.02,-0.01,27.68
22617954.0,0.3,-0.0,9.23,-0.04,0.03,-0.01,27.64
22640954.0,0.31,0.03,9.2,-0.04,0.03,-0.01,27.64
22663954.0,0.32,0.0,9.14,-0.04,0.03,-0.01,27.73
22686954.0,0.27,0.02,9.22,-0.04,0.02,-0.01,27.73
22709954.0,0.28,0.0,9.24,-0.04,0.03,-0.01,27.73
22732954.0,0.31,-0.06,9.2,-0.04,0.03,-0.01,27.73
22755954.0,0.36,-0.05,9.26,-0.04,0.02,-0.01,27.68
22778954.0,0.31,-0.0,9.28,-0.04,0.03,-0.01,27.68
22801954.0,0.25,-0.0,9.28,-0.04,0.03,-0.01,27.68
22824954.0,0.29,-0.0,9.22,-0.04,0.03,-0.01,27.73
22847954.0,0.33,-0.01,9.28,-0.04,0.03,-0.01,27.64
22870954.0,0.34,-0.09,9.25,-0.04,0.02,-0.01,27.73
22893954.0,0.39,-0.02,9.22,-0.04,0.03,-0.01,27.73
22916954.0,0.26,-0.01,9.31,-0.04,0.03,-0.01,27.68
22939954.0,0.35,-0.03,9.21,-0.05,0.03,-0.01,27.68
22962953.0,0.31,-0.02,9.29,-0.04,0.02,-0.01,27.78
22985954.0,0.33,0.04,9.17,-0.04,0.03,-0.01,27.68
23008954.0,0.31,-0.04,9.2,-0.05,0.03,-0.01,27.68
23031954.0,0.36,-0.01,9.31,-0.05,0.02,-0.01,27.73
23054954.0,0.34,-0.05,9.28,-0.04,0.03,-0.01,27.73
23077954.0,0.3,0.02,9.24,-0.04,0.03,-0.01,27.73
23100954.0,0.33,-0.04,9.19,-0.04,0.03,-0.01,27.64
23123954.0,0.33,0.05,9.14,-0.04,0.03,-0.01,27.68
23146954.0,0.27,0.0,9.23,-0.04,0.03,-0.01,27.68
23169954.0,0.22,0.0,9.25,-0.04,0.03,-0.01,27.68
23192954.0,0.34,0.01,9.22,-0.05,0.03,-0.01,27.68
23215954.0,0.33,-0.01,9.17,-0.05,0.03,-0.01,27.73
23238954.0,0.35,-0.06,9.13,-0.04,0.03,-0.01,27.73
23261954.0,0.29,-0.03,9.13,-0.04,0.03,-0.01,27.73
23284954.0,0.35,-0.02,9.16,-0.04,0.03,-0.01,27.64
23307954.0,0.37,0.0,9.17,-0.05,0.03,-0.01,27.73
23330954.0,0.32,0.02,9.26,-0.04,0.03,-0.01,27.68
23353954.0,0.32,-0.04,9.15,-0.04,0.03,-0.01,27.68
23376954.0,0.3,0.01,9.15,-0.04,0.03,-0.01,27.68
23399953.0,0.32,0.01,9.17,-0.05,0.03,-0.01,27.78
23422954.0,0.32,-0.04,9.18,-0.05,0.03,-0.01,27.64
23445954.0,0.37,0.06,9.28,-0.04,0.03,-0.01,27.73
23468954.0,0.32,0.02,9.18,-0.04,0.03,-0.01,27.73
23491954.0,0.36,0.03,9.12,-0.04,0.03,-0.01,27.73
23514954.0,0.29,-0.01,9.29,-0.04,0.03,-0.01,27.73
23537954.0,0.33,-0.02,9.12,-0.04,0.03,-0.01,27.64
23560953.0,0.37,0.04,9.2,-0.04,0.03,-0.01,27.78
23583954.0,0.34,0.02,9.23,-0.04,0.03,-0.01,27.68
23606954.0,0.34,-0.07,9.24,-0.04,0.02,-0.01,27.68
23629954.0,0.27,0.05,9.25,-0.05,0.03,-0.01,27.73
23652954.0,0.33,0.0,9.2,-0.04,0.03,-0.01,27.73
23675954.0,0.33,0.01,9.21,-0.04,0.03,-0.01,27.64
23698954.0,0.27,0.01,9.17,-0.04,0.02,-0.01,27.82
23721954.0,0.32,-0.04,9.13,-0.04,0.03,-0.01,27.68
23744954.0,0.33,0.0,9.2,-0.04,0.03,-0.0,27.68
23767954.0,0.27,-0.02,9.2,-0.04,0.03,-0.01,27.68
23790954.0,0.36,0.06,9.22,-0.04,0.03,-0.01,27.68
23813954.0,0.29,0.01,9.28,-0.04,0.03,-0.01,27.64
23836954.0,0.32,-0.02,9.16,-0.04,0.03,-0.01,27.64
23859954.0,0.33,0.09,9.24,-0.05,0.03,-0.01,27.73
23882954.0,0.28,-0.01,9.15,-0.04,0.02,-0.01,27.73
23905954.0,0.36,-0.03,9.32,-0.04,0.03,-0.01,27.73
23928953.0,0.34,0.02,9.2,-0.05,0.02,-0.01,27.78
23951954.0,0.36,-0.01,9.16,-0.04,0.02,-0.01,27.68
23974954.0,0.39,0.03,9.19,-0.04,0.03,-0.01,27.68
23997953.0,0.33,0.01,9.14,-0.04,0.03,-0.01,27.78
24020954.0,0.36,-0.03,9.28,-0.05,0.02,-0.01,27.73
24043954.0,0.26,0.02,9.23,-0.04,0.03,-0.01,27.64
24066954.0,0.35,0.03,9.26,-0.04,0.03,-0.01,27.73
24089954.0,0.32,-0.03,9.21,-0.04,0.03,-0.01,27.64
24112953.0,0.3,-0.02,9.31,-0.05,0.03,-0.01,27.78
24135953.0,0.38,0.0,9.17,-0.04,0.03,-0.01,27.78
24158954.0,0.27,-0.06,9.22,-0.04,0.03,-0.0,27.68
24181954.0,0.35,0.04,9.19,-0.05,0.03,-0.01,27.68
24204954.0,0.31,0.02,9.12,-0.04,0.03,-0.01,27.68
24227954.0,0.31,-0.03,9.27,-0.04,0.03,-0.01,27.64
24250954.0,0.35,0.04,9.24,-0.04,0.03,-0.01,27.64
24273954.0,0.29,0.06,9.19,-0.04,0.03,-0.01,27.64
24296954.0,0.34,-0.01,9.17,-0.04,0.03,-0.01,27.64
24319954.0,0.36,-0.0,9.16,-0.05,0.03,-0.01,27.73
24342954.0,0.28,-0.02,9.25,-0.05,0.03,-0.01,27.64
24365954.0,0.3,0.06,9.16,-0.04,0.03,-0.0,27.59
24388954.0,0.36,-0.02,9.27,-0.05,0.03,-0.01,27.68
24411954.0,0.32,0.02,9.22,-0.04,0.03,-0.01,27.68
24434954.0,0.41,0.07,9.22,-0.04,0.03,-0.01,27.73
24457954.0,0.34,-0.02,9.26,-0.04,0.03,-0.01,27.64
24480954.0,0.4,0.02,9.18,-0.04,0.03,-0.01,27.64
24503954.0,0.34,-0.0,9.1,-0.05,0.02,-0.01,27.73
24526954.0,0.38,0.0,9.27,-0.04,0.03,-0.01,27.68
24549954.0,0.31,-0.0,9.28,-0.04,0.03,-0.01,27.68
24572953.0,0.3,0.07,9.34,-0.04,0.03,-0.01,27.78
24595953.0,0.3,0.06,9.11,-0.04,0.03,-0.01,27.78
24618954.0,0.37,0.05,9.2,-0.04,0.03,-0.01,27.73
24641954.0,0.34,0.05,9.15,-0.04,0.03,-0.01,27.64
24664954.0,0.34,-0.02,9.12,-0.04,0.03,-0.01,27.73
24687954.0,0.34,0.02,9.27,-0.04,0.03,-0.01,27.64
24710954.0,0.32,-0.02,9.36,-0.04,0.03,-0.01,27.64
24733954.0,0.31,0.0,9.22,-0.04,0.03,-0.01,27.68
24756954.0,0.32,-0.04,9.12,-0.04,0.03,-0.01,27.68
24779953.0,0.4,0.01,9.21,-0.04,0.03,-0.01,27.78
24802954.0,0.32,0.02,9.23,-0.04,0.03,-0.01,27.68
24825954.0,0.31,-0.0,9.26,-0.04,0.03,-0.01,27.82
24848954.0,0.33,-0.05,9.22,-0.04,0.03,-0.01,27.73
24871954.0,0.29,-0.03,9.32,-0.04,0.03,-0.01,27.73
24894954.0,0.33,-0.02,9.18,-0.04,0.03,-0.01,27.73
24917954.0,0.36,0.04,9.22,-0.04,0.03,-0.01,27.68
24940953.0,0.27,-0.02,9.19,-0.04,0.03,-0.01,27.78
24963954.0,0.35,0.03,9.22,-0.04,0.03,-0.01,27.68
24986954.0,0.35,-0.03,9.16,-0.04,0.03,-0.01,27.68
25009954.0,0.33,-0.04,9.27,-0.05,0.03,-0.01,27.68
25032954.0,0.32,0.01,9.23,-0.04,0.03,-0.01,27.73
25055954.0,0.33,0.04,9.2,-0.04,0.03,-0.01,27.73
25078954.0,0.34,-0.02,9.22,-0.05,0.03,-0.01,27.73
25101954.0,0.28,0.02,9.23,-0.04,0.03,-0.01,27.73
25124954.0,0.29,0.04,9.19,-0.05,0.03,-0.01,27.64
25147954.0,0.33,0.04,9.28,-0.04,0.02,-0.01,27.64
25170954.0,0.34,-0.0,9.22,-0.04,0.03,-0.01,27.68
25193954.0,0.32,0.06,9.27,-0.04,0.03,-0.01,27.68
25216954.0,0.34,0.04,9.2,-0.04,0.03,-0.01,27.73
25239954.0,0.38,0.01,9.23,-0.04,0.03,-0.01,27.73
25262954.0,0.34,-0.0,9.17,-0.04,0.02,-0.01,27.73
25285954.0,0.34,0.05,9.24,-0.04,0.03,-0.01,27.73
25308954.0,0.31,0.01,9.27,-0.04,0.03,-0.01,27.64
25331954.0,0.33,0.02,9.17,-0.04,0.03,-0.01,27.68
25354954.0,0.36,0.01,9.35,-0.04,0.03,-0.01,27.68
25377953.0,0.31,0.01,9.23,-0.04,0.03,-0.01,27.78
25400954.0,0.34,0.05,9.28,-0.04,0.03,-0.01,27.68
25423954.0,0.39,-0.02,9.22,-0.04,0.03,-0.01,27.73
25446954.0,0.32,0.01,9.17,-0.05,0.03,-0.01,27.73
25469954.0,0.29,0.06,9.2,-0.04,0.03,-0.01,27.73
25492954.0,0.34,0.01,9.17,-0.04,0.03,-0.01,27.73
25515954.0,0.35,0.11,9.22,-0.04,0.02,-0.01,27.68
25538954.0,0.36,-0.0,9.18,-0.04,0.03,-0.01,27.68
25561954.0,0.31,0.0,9.25,-0.04,0.03,-0.01,27.68
25584954.0,0.36,-0.06,9.27,-0.04,0.03,-0.01,27.59
25607954.0,0.29,0.04,9.27,-0.04,0.03,-0.01,27.68
25630954.0,0.35,0.03,9.22,-0.04,0.03,-0.01,27.73
25653954.0,0.34,0.05,9.29,-0.04,0.03,-0.01,27.73
25676954.0,0.34,-0.01,9.26,-0.04,0.03,-0.01,27.64
25699954.0,0.28,-0.02,9.23,-0.05,0.02,-0.01,27.73
25722954.0,0.33,-0.02,9.13,-0.04,0.02,-0.01,27.68
25745954.0,0.32,0.03,9.27,-0.04,0.03,-0.01,27.68
25768954.0,0.35,0.08,9.22,-0.05,0.03,-0.01,27.68
25791954.0,0.33,-0.01,9.25,-0.04,0.03,-0.01,27.68
25814954.0,0.31,0.01,9.29,-0.04,0.03,-0.01,27.59
25837954.0,0.37,-0.03,9.19,-0.04,0.03,-0.0,27.73
25860954.0,0.32,0.01,9.27,-0.04,0.02,-0.01,27.73
25883954.0,0.36,0.05,9.26,-0.04,0.03,-0.01,27.73
25906954.0,0.31,0.01,9.27,-0.04,0.03,-0.01,27.64
25929954.0,0.3,-0.01,9.16,-0.04,0.02,-0.01,27.73
25952954.0,0.29,-0.06,9.21,-0.04,0.03,-0.01,27.68
25975954.0,0.27,-0.06,9.24,-0.04,0.03,-0.01,27.68
25998954.0,0.28,0.05,9.22,-0.04,0.03,-0.01,27.68
26021954.0,0.32,0.03,9.13,-0.04,0.03,-0.01,27.73
26044954.0,0.28,0.05,9.14,-0.05,0.03,-0.01,27.73
26067954.0,0.31,0.01,9.22,-0.04,0.03,-0.01,27.73
26090954.0,0.36,-0.0,9.2,-0.04,0.03,-0.01,27.64
26113954.0,0.32,-0.06,9.23,-0.04,0.03,-0.01,27.64
26136953.0,0.29,-0.03,9.24,-0.04,0.02,-0.01,27.78
26159954.0,0.34,0.06,9.3,-0.04,0.03,-0.01,27.59
26182954.0,0.32,0.01,9.19,-0.05,0.02,-0.01,27.68
26205953.0,0.34,0.0,9.25,-0.05,0.02,-0.01,27.78
26228954.0,0.36,-0.04,9.18,-0.04,0.03,-0.01,27.64
26251954.0,0.32,-0.05,9.31,-0.04,0.03,-0.01,27.64
26274954.0,0.33,0.03,9.26,-0.04,0.03,-0.01,27.73
26297954.0,0.34,0.05,9.11,-0.04,0.02,-0.01,27.73
26320953.0,0.36,0.02,9.2,-0.05,0.03,-0.01,27.78
26343953.0,0.28,0.03,9.25,-0.04,0.03,-0.01,27.78
26366953.0,0.32,-0.05,9.2,-0.04,0.03,-0.01,27.78
26389954.0,0.3,-0.02,9.32,-0.04,0.03,-0.01,27.68
26412954.0,0.29,0.0,9.32,-0.04,0.03,-0.01,27.68
26435954.0,0.35,0.03,9.29,-0.04,0.03,-0.01,27.73
26458954.0,0.29,0.0,9.17,-0.04,0.03,-0.01,27.64
26481954.0,0.36,0.05,9.18,-0.05,0.03,-0.01,27.73
26504954.0,0.35,0.05,9.18,-0.05,0.03,-0.01,27.64
26527954.0,0.3,0.05,9.17,-0.05,0.03,-0.01,27.68
26550954.0,0.29,-0.04,9.11,-0.04,0.03,-0.01,27.68
26573953.0,0.26,0.08,9.18,-0.04,0.03,-0.01,27.78
26596954.0,0.3,0.06,9.16,-0.04,0.03,-0.01,27.68
26619954.0,0.37,-0.02,9.16,-0.04,0.03,-0.01,27.82
26642954.0,0.29,0.0,9.18,-0.04,0.03,-0.01,27.73
26665954.0,0.34,0.01,9.14,-0.04,0.03,-0.01,27.73
26688954.0,0.33,-0.04,9.22,-0.04,0.03,-0.01,27.73
26711954.0,0.33,-0.04,9.12,-0.04,0.03,-0.01,27.73
26734954.0,0.36,0.06,9.31,-0.05,0.03,-0.01,27.82
26757954.0,0.33,0.0,9.2,-0.04,0.03,-0.01,27.59
26780954.0,0.31,-0.03,9.16,-0.04,0.03,-0.01,27.68
26803953.0,0.28,0.08,9.17,-0.04,0.03,-0.01,27.78
26826954.0,0.31,0.04,9.14,-0.05,0.03,-0.01,27.64
26849954.0,0.33,0.05,9.24,-0.05,0.03,-0.01,27.64
26872954.0,0.31,0.01,9.22,-0.05,0.03,-0.01,27.64
26895954.0,0.4,-0.01,9.22,-0.04,0.03,-0.01,27.73
26918954.0,0.34,0.04,9.21,-0.04,0.03,-0.01,27.68
26941953.0,0.31,0.01,9.28,-0.04,0.03,-0.01,27.78
26964954.0,0.35,0.03,9.22,-0.04,0.03,-0.01,27.59
26987954.0,0.35,0.04,9.26,-0.04,0.03,-0.01,27.59
27010954.0,0.35,0.04,9.23,-0.04,0.03,-0.01,27.68
27033954.0,0.3,0.04,9.19,-0.04,0.03,-0.01,27.73
27056954.0,0.28,-0.01,9.18,-0.04,0.03,-0.01,27.64
27079954.0,0.3,-0.05,9.21,-0.04,0.03,-0.01,27.64
27102954.0,0.36,0.0,9.22,-0.04,0.03,-0.01,27.73
27125954.0,0.35,-0.05,9.21,-0.04,0.03,-0.01,27.68
27148954.0,0.36,-0.01,9.34,-0.04,0.03,-0.01,27.68
27171953.0,0.34,0.07,9.31,-0.04,0.03,-0.01,27.78
27194954.0,0.33,-0.0,9.15,-0.04,0.03,-0.01,27.68
27217954.0,0.37,0.06,9.31,-0.04,0.03,-0.01,27.68
27240954.0,0.31,0.04,9.09,-0.04,0.02,-0.01,27.73
27263954.0,0.32,-0.01,9.22,-0.04,0.03,-0.01,27.73
27286954.0,0.35,-0.06,9.14,-0.04,0.02,-0.01,27.73
27309954.0,0.31,-0.01,9.24,-0.04,0.02,-0.01,27.73
27332953.0,0.34,-0.05,9.28,-0.04,0.03,-0.0,27.78
27355954.0,0.28,-0.02,9.1,-0.04,0.03,-0.0,27.59
27378954.0,0.34,-0.06,9.23,-0.04,0.03,-0.01,27.68
27401953.0,0.3,-0.0,9.16,-0.04,0.03,-0.01,27.78
27424954.0,0.35,-0.0,9.23,-0.04,0.03,-0.01,27.64
27447954.0,0.34,0.03,9.24,-0.05,0.02,-0.01,27.64
27470954.0,0.36,0.07,9.12,-0.04,0.03,-0.01,27.73
27493954.0,0.33,0.04,9.25,-0.04,0.03,-0.01,27.64
27516954.0,0.28,0.02,9.16,-0.04,0.03,-0.01,27.73
27539954.0,0.34,-0.02,9.28,-0.04,0.03,-0.01,27.73
27562953.0,0.33,0.03,9.15,-0.04,0.03,-0.01,27.78
27585953.0,0.34,0.03,9.24,-0.04,0.03,-0.01,27.78
27608954.0,0.28,-0.06,9.16,-0.04,0.03,-0.01,27.59
27631954.0,0.33,0.0,9.11,-0.04,0.03,-0.01,27.64
27654954.0,0.36,-0.04,9.18,-0.04,0.03,-0.01,27.64
27677954.0,0.27,0.01,9.16,-0.04,0.03,-0.01,27.64
27700954.0,0.33,0.0,9.2,-0.05,0.03,-0.01,27.73
27723954.0,0.31,0.04,9.23,-0.04,0.03,-0.01,27.68
27746954.0,0.34,0.0,9.25,-0.04,0.03,-0.01,27.68
27769953.0,0.31,0.03,9.21,-0.04,0.03,-0.01,27.78
27792953.0,0.31,0.01,9.2,-0.04,0.03,-0.01,27.78
27815954.0,0.32,0.05,9.11,-0.04,0.03,-0.01,27.68
27838954.0,0.33,0.03,9.15,-0.05,0.03,-0.01,27.73
27861954.0,0.25,0.05,9.28,-0.05,0.03,-0.01,27.73
27884954.0,0.35,-0.03,9.29,-0.04,0.02,-0.01,27.73
27907954.0,0.38,0.01,9.2,-0.05,0.03,-0.01,27.73
27930953.0,0.41,0.04,9.19,-0.04,0.03,-0.01,27.78
27953953.0,0.33,-0.03,9.2,-0.04,0.03,-0.01,27.78
27976953.0,0.28,-0.04,9.18,-0.04,0.03,-0.01,27.78
27999953.0,0.34,0.07,9.19,-0.04,0.03,-0.01,27.78
28022954.0,0.3,-0.01,9.25,-0.04,0.03,-0.01,27.73
28045954.0,0.34,-0.03,9.23,-0.04,0.03,-0.01,27.64
28068954.0,0.3,-0.04,9.22,-0.04,0.03,-0.01,27.73
28091954.0,0.31,-0.01,9.26,-0.04,0.03,-0.01,27.73
28114954.0,0.28,-0.0,9.27,-0.04,0.03,-0.01,27.73
28137954.0,0.31,-0.01,9.26,-0.04,0.03,-0.01,27.68
28160954.0,0.33,-0.01,9.18,-0.04,0.03,-0.01,27.68
28183954.0,0.36,0.03,9.12,-0.04,0.03,-0.01,27.68
28206954.0,0.36,-0.01,9.23,-0.04,0.03,-0.0,27.68
28229954.0,0.34,0.04,9.26,-0.04,0.03,-0.01,27.73
28252954.0,0.34,-0.01,9.13,-0.04,0.03,-0.01,27.64
28275954.0,0.33,0.05,9.3,-0.04,0.03,-0.01,27.73
28298954.0,0.37,0.07,9.17,-0.04,0.03,-0.01,27.73
28321954.0,0.31,-0.04,9.17,-0.04,0.03,-0.01,27.64
28344954.0,0.22,0.02,9.2,-0.04,0.03,-0.01,27.73
28367953.0,0.35,-0.02,9.17,-0.05,0.03,-0.01,27.78
28390953.0,0.33,0.02,9.27,-0.05,0.03,-0.01,27.78
28413953.0,0.41,0.04,9.23,-0.04,0.03,-0.01,27.78
28436954.0,0.28,-0.03,9.19,-0.05,0.03,-0.01,27.64
28459954.0,0.35,-0.07,9.21,-0.04,0.03,-0.01,27.64
28482954.0,0.32,0.05,9.22,-0.04,0.03,-0.01,27.73
28505954.0,0.37,-0.0,9.23,-0.04,0.02,-0.01,27.82
28528954.0,0.3,-0.0,9.27,-0.04,0.03,-0.01,27.68
28551954.0,0.28,-0.01,9.26,-0.04,0.03,-0.01,27.68
28574954.0,0.33,0.02,9.14,-0.04,0.03,-0.01,27.68
28597954.0,0.27,-0.02,9.19,-0.04,0.03,-0.01,27.68
28620954.0,0.27,0.02,9.25,-0.04,0.03,-0.01,27.68
28643954.0,0.3,0.01,9.18,-0.04,0.03,-0.01,27.73
28666954.0,0.35,0.02,9.24,-0.04,0.03,-0.01,27.73
28689954.0,0.4,0.06,9.22,-0.05,0.03,-0.01,27.64
28712954.0,0.31,-0.03,9.23,-0.04,0.03,-0.01,27.64
28735954.0,0.34,0.02,9.26,-0.04,0.03,-0.01,27.68
28758954.0,0.33,0.0,9.19,-0.04,0.03,-0.01,27.68
28781953.0,0.35,0.0,9.16,-0.04,0.03,-0.01,27.78
28804953.0,0.31,0.08,9.18,-0.04,0.03,-0.01,27.78
28827954.0,0.29,-0.01,9.24,-0.05,0.03,-0.01,27.73
28850954.0,0.34,0.04,9.26,-0.04,0.03,-0.01,27.64
28873954.0,0.34,-0.05,9.25,-0.04,0.03,-0.01,27.73
28896954.0,0.31,-0.02,9.21,-0.04,0.03,-0.01,27.73
28919954.0,0.36,0.05,9.17,-0.04,0.03,-0.01,27.73
28942953.0,0.33,0.02,9.29,-0.05,0.03,-0.01,27.78
28965954.0,0.36,0.04,9.27,-0.04,0.03,-0.01,27.68
28988954.0,0.34,0.01,9.19,-0.04,0.03,-0.01,27.68
29011954.0,0.38,-0.0,9.17,-0.04,0.03,-0.01,27.68
29034954.0,0.26,-0.05,9.14,-0.04,0.03,-0.01,27.73
29057954.0,0.3,0.04,9.2,-0.04,0.03,-0.01,27.64
29080954.0,0.33,0.0,9.14,-0.04,0.03,-0.01,27.73
29103954.0,0.37,0.02,9.23,-0.04,0.03,-0.01,27.73
29126954.0,0.39,0.07,9.27,-0.04,0.03,-0.01,27.82
29149954.0,0.33,0.03,9.22,-0.04,0.03,-0.01,27.73
29172954.0,0.29,0.08,9.27,-0.05,0.03,-0.01,27.59
29195953.0,0.31,0.04,9.14,-0.04,0.02,-0.0,27.78
29218954.0,0.34,-0.03,9.28,-0.04,0.03,-0.01,27.68
29241954.0,0.33,0.03,9.32,-0.04,0.03,-0.01,27.64
29264954.0,0.29,0.02,9.25,-0.05,0.03,-0.01,27.73
29287954.0,0.28,0.0,9.2,-0.04,0.03,-0.01,27.73
29310954.0,0.31,0.06,9.23,-0.04,0.03,-0.01,27.73
29333954.0,0.4,0.06,9.28,-0.05,0.02,-0.01,27.68
29356954.0,0.29,0.01,9.22,-0.05,0.03,-0.01,27.68
29379953.0,0.3,-0.01,9.26,-0.04,0.03,-0.01,27.78
29402954.0,0.33,0.0,9.21,-0.04,0.03,-0.01,27.68
29425954.0,0.36,0.04,9.22,-0.04,0.03,-0.01,27.64
29448954.0,0.29,0.03,9.22,-0.04,0.03,-0.01,27.73
29471954.0,0.33,0.02,9.16,-0.05,0.03,-0.01,27.64
29494954.0,0.3,0.04,9.18,-0.04,0.03,-0.01,27.64
29517954.0,0.27,0.0,9.29,-0.04,0.02,-0.01,27.73
29540954.0,0.34,-0.0,9.19,-0.04,0.03,-0.01,27.68
29563954.0,0.33,0.03,9.24,-0.04,0.03,-0.01,27.68
29586954.0,0.3,-0.01,9.17,-0.05,0.02,-0.01,27.68
29609954.0,0.34,0.04,9.13,-0.04,0.03,-0.01,27.68
29632954.0,0.37,0.0,9.22,-0.04,0.03,-0.01,27.73
29655954.0,0.34,-0.01,9.27,-0.04,0.03,-0.01,27.73
29678954.0,0.3,-0.01,9.2,-0.04,0.03,-0.01,27.73
29701954.0,0.36,-0.0,9.22,-0.04,0.03,-0.01,27.82
29724953.0,0.36,0.01,9.21,-0.04,0.03,-0.01,27.78
29747953.0,0.28,0.03,9.27,-0.04,0.02,-0.01,27.78
29770954.0,0.31,0.03,9.11,-0.04,0.03,-0.01,27.68
29793954.0,0.36,0.02,9.24,-0.04,0.03,-0.01,27.59
29816953.0,0.3,0.04,9.31,-0.04,0.03,-0.01,27.78
29839954.0,0.31,0.0,9.15,-0.05,0.03,-0.01,27.73
29862954.0,0.37,0.0,9.23,-0.04,0.03,-0.01,27.64
29885954.0,0.38,0.05,9.22,-0.04,0.03,-0.01,27.64
29908954.0,0.31,0.1,9.16,-0.04,0.03,-0.01,27.64
29931954.0,0.41,0.04,9.3,-0.04,0.03,-0.01,27.64
29954954.0,0.32,-0.02,9.23,-0.04,0.03,-0.01,27.64
29977953.0,0.3,-0.08,9.16,-0.05,0.03,-0.01,27.78
30000954.0,0.35,-0.03,9.22,-0.05,0.02,-0.01,27.68
30023954.0,0.29,0.04,9.15,-0.05,0.03,-0.01,27.68
30046954.0,0.33,-0.02,9.14,-0.04,0.03,-0.01,27.73
30069954.0,0.39,0.03,9.15,-0.04,0.02,-0.01,27.64
30092954.0,0.3,0.08,9.24,-0.04,0.03,-0.01,27.64
30115954.0,0.31,0.02,9.17,-0.04,0.03,-0.01,27.73
30138953.0,0.34,0.03,9.14,-0.04,0.03,-0.01,27.78
30161954.0,0.32,0.03,9.14,-0.05,0.03,-0.01,27.59
30184954.0,0.31,0.04,9.26,-0.04,0.03,-0.01,27.68
30207954.0,0.35,-0.02,9.24,-0.04,0.02,-0.01,27.68
30230954.0,0.38,0.04,9.17,-0.04,0.03,-0.01,27.64
30253954.0,0.32,0.03,9.22,-0.04,0.03,-0.01,27.64
30276954.0,0.34,-0.0,9.15,-0.04,0.03,-0.01,27.64
30299954.0,0.33,0.03,9.27,-0.04,0.03,-0.01,27.73
30322954.0,0.34,-0.01,9.22,-0.04,0.03,-0.01,27.64
30345953.0,0.36,0.02,9.24,-0.04,0.03,-0.01,27.78
30368954.0,0.34,0.0,9.23,-0.04,0.03,-0.01,27.68
30391954.0,0.34,-0.04,9.25,-0.04,0.03,-0.01,27.68
30414954.0,0.31,0.04,9.22,-0.04,0.02,-0.01,27.68
30437954.0,0.37,-0.05,9.22,-0.04,0.03,-0.01,27.73
30460954.0,0.3,-0.06,9.28,-0.04,0.03,-0.01,27.73
30483954.0,0.36,-0.01,9.26,-0.04,0.03,-0.01,27.64
30506954.0,0.33,-0.0,9.21,-0.04,0.03,-0.01,27.64
30529954.0,0.33,0.01,9.21,-0.04,0.03,-0.01,27.68
30552954.0,0.27,0.06,9.17,-0.04,0.03,-0.01,27.68
30575954.0,0.28,0.1,9.19,-0.04,0.03,-0.01,27.68
30598954.0,0.33,0.06,9.12,-0.04,0.03,-0.01,27.68
30621953.0,0.4,0.02,9.22,-0.04,0.02,-0.01,27.78
30644954.0,0.32,-0.02,9.17,-0.04,0.03,-0.01,27.73
30667954.0,0.34,-0.0,9.27,-0.04,0.03,-0.01,27.73
30690954.0,0.34,-0.01,9.23,-0.04,0.03,-0.01,27.73
30713954.0,0.33,0.03,9.21,-0.04,0.03,-0.01,27.82
30736954.0,0.32,-0.04,9.17,-0.04,0.03,-0.01,27.64
30759954.0,0.29,0.02,9.22,-0.04,0.03,-0.01,27.73
30782954.0,0.3,0.02,9.18,-0.04,0.03,-0.01,27.68
30805954.0,0.34,0.01,9.22,-0.04,0.03,-0.01,27.59
30828954.0,0.34,-0.02,9.28,-0.04,0.03,-0.01,27.64
30851954.0,0.33,0.0,9.17,-0.04,0.03,-0.01,27.64
30874954.0,0.41,0.02,9.21,-0.04,0.03,-0.01,27.64
30897954.0,0.4,0.02,9.26,-0.04,0.03,-0.01,27.64
30920954.0,0.3,0.04,9.26,-0.05,0.02,-0.01,27.73
30943954.0,0.27,-0.06,9.16,-0.04,0.02,-0.01,27.68
30966954.0,0.32,0.02,9.22,-0.05,0.03,-0.01,27.68
30989953.0,0.3,0.0,9.2,-0.04,0.03,-0.01,27.78
31012953.0,0.29,-0.06,9.27,-0.04,0.02,-0.01,27.78
31035954.0,0.32,-0.03,9.23,-0.04,0.03,-0.01,27.82
31058954.0,0.32,-0.01,9.22,-0.05,0.03,-0.01,27.73
31081954.0,0.37,-0.01,9.22,-0.04,0.03,-0.01,27.82
31104954.0,0.32,-0.02,9.15,-0.05,0.03,-0.01,27.64
31127954.0,0.3,-0.04,9.24,-0.04,0.03,-0.01,27.68
31150954.0,0.36,-0.06,9.23,-0.05,0.03,-0.01,27.68
31173954.0,0.33,-0.02,9.24,-0.04,0.03,-0.01,27.59
31196953.0,0.32,0.04,9.18,-0.04,0.03,-0.01,27.78
31219954.0,0.33,0.0,9.2,-0.04,0.03,-0.01,27.59
31242954.0,0.34,0.04,9.26,-0.05,0.03,-0.01,27.73
31265954.0,0.25,-0.04,9.25,-0.04,0.03,-0.01,27.64
31288954.0,0.32,0.02,9.21,-0.04,0.02,-0.01,27.64
31311954.0,0.34,-0.0,9.22,-0.04,0.02,-0.01,27.73
31334954.0,0.29,0.03,9.29,-0.05,0.03,-0.01,27.68
31357954.0,0.33,-0.02,9.27,-0.04,0.03,-0.01,27.68
31380953.0,0.36,0.02,9.15,-0.04,0.03,-0.01,27.78
31403954.0,0.34,0.0,9.22,-0.04,0.03,-0.01,27.68
31426954.0,0.27,-0.01,9.24,-0.04,0.03,-0.01,27.59
31449954.0,0.31,-0.02,9.2,-0.04,0.03,-0.01,27.73
31472954.0,0.34,0.02,9.23,-0.04,0.03,-0.01,27.73
31495954.0,0.32,0.05,9.29,-0.04,0.02,-0.01,27.64
31518954.0,0.34,-0.02,9.1,-0.04,0.03,-0.01,27.64
31541954.0,0.34,-0.05,9.16,-0.04,0.03,-0.01,27.73
31564954.0,0.34,-0.03,9.32,-0.04,0.03,-0.0,27.73
31587954.0,0.32,0.04,9.17,-0.04,0.03,-0.01,27.68
31610954.0,0.32,-0.02,9.24,-0.04,0.03,-0.01,27.68
31633954.0,0.34,-0.02,9.18,-0.04,0.03,-0.01,27.73
31656954.0,0.33,0.01,9.28,-0.04,0.03,-0.01,27.64
31679954.0,0.38,-0.01,9.15,-0.04,0.03,-0.01,27.64
31702954.0,0.3,-0.01,9.24,-0.04,0.03,-0.01,27.64
31725954.0,0.36,-0.03,9.2,-0.04,0.03,-0.01,27.73
31748954.0,0.35,0.0,9.24,-0.05,0.03,-0.01,27.68
31771953.0,0.29,-0.01,9.16,-0.04,0.03,-0.01,27.78
31794954.0,0.32,0.06,9.21,-0.05,0.02,-0.01,27.68
31817954.0,0.32,-0.03,9.22,-0.04,0.03,-0.01,27.68
31840954.0,0.34,0.05,9.23,-0.05,0.03,-0.01,27.73
31863954.0,0.35,-0.04,9.21,-0.04,0.03,-0.01,27.73
31886954.0,0.28,-0.02,9.23,-0.04,0.03,-0.01,27.73
31909954.0,0.32,0.0,9.17,-0.04,0.03,-0.01,27.54
31932954.0,0.31,0.03,9.22,-0.04,0.02,-0.01,27.68
31955954.0,0.37,0.02,9.27,-0.04,0.03,-0.01,27.59
31978954.0,0.35,-0.04,9.25,-0.04,0.03,-0.01,27.59
32001954.0,0.34,-0.04,9.17,-0.04,0.03,-0.01,27.68
32024954.0,0.25,0.0,9.2,-0.04,0.03,-0.01,27.68
32047954.0,0.3,0.06,9.21,-0.04,0.03,-0.01,27.73
32070954.0,0.33,-0.01,9.24,-0.04,0.02,-0.01,27.64
32093954.0,0.29,0.04,9.24,-0.04,0.03,-0.01,27.73
32116954.0,0.33,0.01,9.15,-0.04,0.03,-0.01,27.64
32139954.0,0.35,-0.01,9.26,-0.04,0.03,-0.01,27.68
32162954.0,0.28,0.0,9.13,-0.04,0.03,-0.01,27.68
32185954.0,0.35,-0.03,9.28,-0.04,0.03,-0.01,27.59
32208954.0,0.32,0.01,9.17,-0.05,0.02,-0.01,27.68
32231954.0,0.34,-0.02,9.23,-0.04,0.03,-0.01,27.64
32254954.0,0.37,0.04,9.19,-0.04,0.03,-0.01,27.73
32277954.0,0.35,-0.02,9.18,-0.04,0.03,-0.01,27.64
32300954.0,0.31,-0.05,9.17,-0.04,0.03,-0.01,27.73
32323954.0,0.33,0.03,9.33,-0.04,0.03,-0.01,27.73
32346954.0,0.36,0.04,9.27,-0.04,0.03,-0.01,27.64
32369953.0,0.32,0.06,9.18,-0.04,0.03,-0.01,27.78
32392954.0,0.35,0.03,9.08,-0.05,0.03,-0.01,27.68
32415954.0,0.32,0.05,9.2,-0.04,0.03,-0.01,27.68
32438954.0,0.37,-0.03,9.3,-0.04,0.02,-0.01,27.64
32461954.0,0.35,0.01,9.23,-0.04,0.03,-0.01,27.82
32484954.0,0.32,0.05,9.25,-0.04,0.03,-0.01,27.64
32507954.0,0.36,0.06,9.19,-0.04,0.03,-0.01,27.73
32530954.0,0.3,0.04,9.07,-0.04,0.03,-0.0,27.68
32553954.0,0.34,0.01,9.22,-0.04,0.03,-0.01,27.59
32576953.0,0.29,0.0,9.24,-0.04,0.03,-0.01,27.78
32599954.0,0.28,-0.01,9.33,-0.04,0.03,-0.01,27.68
32622954.0,0.35,0.07,9.18,-0.04,0.03,-0.01,27.68
32645954.0,0.37,-0.02,9.21,-0.04,0.03,-0.01,27.73
32668954.0,0.36,-0.01,9.17,-0.05,0.03,-0.01,27.73
32691954.0,0.33,-0.05,9.24,-0.04,0.03,-0.01,27.73
32714954.0,0.36,-0.03,9.17,-0.04,0.03,-0.01,27.73
32737953.0,0.33,0.04,9.19,-0.04,0.03,-0.01,27.78
32760954.0,0.32,0.0,9.14,-0.04,0.03,-0.01,27.68
32783954.0,0.34,0.0,9.21,-0.04,0.03,-0.01,27.59
32806954.0,0.34,-0.04,9.2,-0.04,0.03,-0.01,27.68
32829954.0,0.28,-0.04,9.27,-0.04,0.03,-0.01,27.68
32852954.0,0.26,-0.01,9.1,-0.04,0.03,-0.01,27.64
32875954.0,0.37,0.02,9.2,-0.04,0.02,-0.01,27.64
32898954.0,0.39,-0.02,9.25,-0.04,0.03,-0.01,27.82
32921954.0,0.29,0.06,9.21,-0.04,0.03,-0.01,27.82
32944953.0,0.32,0.09,9.27,-0.05,0.03,-0.01,27.78
32967953.0,0.33,0.02,9.23,-0.04,0.03,-0.01,27.78
32990954.0,0.29,0.04,9.27,-0.04,0.03,-0.01,27.68
33013953.0,0.31,0.03,9.15,-0.04,0.03,-0.01,27.78
33036954.0,0.32,0.07,9.25,-0.05,0.03,-0.01,27.64
33059954.0,0.32,0.05,9.25,-0.04,0.03,-0.0,27.64
33082954.0,0.34,0.07,9.2,-0.04,0.03,-0.01,27.73
33105954.0,0.3,-0.02,9.29,-0.04,0.03,-0.01,27.64
33128954.0,0.29,0.06,9.24,-0.05,0.03,-0.01,27.73
33151954.0,0.39,-0.02,9.24,-0.04,0.03,-0.0,27.73
33174954.0,0.37,-0.01,9.26,-0.04,0.03,-0.01,27.68
33197953.0,0.36,0.0,9.23,-0.04,0.03,-0.01,27.78
33220954.0,0.36,-0.01,9.24,-0.05,0.03,-0.01,27.68
33243954.0,0.32,0.01,9.3,-0.04,0.03,-0.01,27.73
33266954.0,0.3,-0.0,9.16,-0.04,0.03,-0.01,27.64
33289954.0,0.26,0.02,9.26,-0.05,0.03,-0.01,27.64
33312954.0,0.27,0.03,9.18,-0.04,0.03,-0.01,27.64
33335954.0,0.3,-0.01,9.27,-0.05,0.03,-0.01,27.68
33358954.0,0.3,0.03,9.16,-0.04,0.03,-0.01,27.68
33381954.0,0.3,-0.05,9.22,-0.04,0.03,-0.01,27.68
33404954.0,0.24,0.01,9.26,-0.04,0.03,-0.01,27.68
33427954.0,0.33,0.04,9.19,-0.04,0.03,-0.01,27.68
33450954.0,0.36,0.06,9.21,-0.04,0.03,-0.01,27.73
33473954.0,0.32,0.01,9.22,-0.04,0.03,-0.01,27.73
33496954.0,0.34,-0.04,9.14,-0.04,0.03,-0.01,27.64
33519954.0,0.31,0.01,9.2,-0.05,0.03,-0.01,27.73
33542954.0,0.36,-0.1,9.17,-0.04,0.03,-0.01,27.68
33565954.0,0.4,-0.0,9.16,-0.04,0.03,-0.01,27.68
33588954.0,0.31,-0.03,9.21,-0.04,0.03,-0.01,27.68
33611953.0,0.36,0.02,9.13,-0.05,0.03,-0.01,27.78
33634954.0,0.34,-0.01,9.18,-0.04,0.03,-0.01,27.73
33657954.0,0.33,0.02,9.14,-0.05,0.03,-0.01,27.64
33680954.0,0.33,0.0,9.19,-0.04,0.03,-0.01,27.73
33703954.0,0.36,0.03,9.22,-0.04,0.03,-0.01,27.73
33726954.0,0.3,0.04,9.21,-0.04,0.03,-0.01,27.64
33749954.0,0.32,-0.01,9.24,-0.04,0.03,-0.01,27.68
33772954.0,0.32,0.0,9.17,-0.04,0.03,-0.01,27.68
33795954.0,0.33,-0.03,9.16,-0.04,0.03,-0.01,27.68
33818954.0,0.3,0.02,9.18,-0.04,0.03,-0.01,27.68
33841954.0,0.3,-0.03,9.34,-0.04,0.03,-0.01,27.64
33864954.0,0.38,0.06,9.19,-0.04,0.03,-0.01,27.73
33887954.0,0.31,-0.02,9.29,-0.04,0.03,-0.01,27.73
33910954.0,0.35,0.05,9.16,-0.04,0.02,-0.01,27.82
33933954.0,0.3,0.05,9.28,-0.04,0.02,-0.01,27.64
33956954.0,0.32,-0.05,9.28,-0.04,0.03,-0.01,27.73
33979954.0,0.31,-0.05,9.18,-0.04,0.03,-0.01,27.59
34002954.0,0.35,-0.02,9.3,-0.05,0.03,-0.01,27.68
34025954.0,0.31,0.0,9.29,-0.04,0.03,-0.01,27.68
34048954.0,0.33,-0.03,9.29,-0.04,0.03,-0.01,27.64
34071954.0,0.25,0.0,9.23,-0.04,0.03,-0.01,27.64
34094954.0,0.31,0.01,9.17,-0.04,0.03,-0.01,27.64
34117954.0,0.32,0.01,9.15,-0.04,0.03,-0.01,27.73
34140954.0,0.34,0.03,9.15,-0.04,0.03,-0.01,27.68
34163953.0,0.39,0.0,9.17,-0.04,0.03,-0.01,27.78
34186954.0,0.27,0.02,9.29,-0.04,0.03,-0.01,27.68
34209954.0,0.35,0.04,9.26,-0.04,0.03,-0.01,27.68
34232954.0,0.4,0.03,9.23,-0.04,0.03,-0.01,27.68
34255954.0,0.29,0.03,9.26,-0.04,0.03,-0.01,27.64
34278954.0,0.37,0.0,9.24,-0.05,0.03,-0.01,27.73
34301954.0,0.33,-0.02,9.17,-0.04,0.03,-0.01,27.73
34324954.0,0.32,0.0,9.2,-0.04,0.03,-0.01,27.73
34347954.0,0.28,0.0,9.19,-0.04,0.03,-0.01,27.68
34370954.0,0.32,0.04,9.22,-0.04,0.03,-0.01,27.68
34393953.0,0.34,0.06,9.32,-0.04,0.03,-0.01,27.78
34416954.0,0.28,0.02,9.25,-0.04,0.03,-0.01,27.68
34439954.0,0.35,0.05,9.28,-0.04,0.03,-0.01,27.73
34462954.0,0.33,0.06,9.17,-0.04,0.03,-0.01,27.73
34485954.0,0.34,-0.01,9.16,-0.04,0.03,-0.01,27.73
34508954.0,0.26,0.0,9.1,-0.04,0.03,-0.01,27.73
34531954.0,0.31,0.03,9.16,-0.04,0.03,-0.01,27.73
34554954.0,0.34,0.03,9.24,-0.05,0.02,-0.01,27.68
34577954.0,0.27,0.05,9.17,-0.04,0.03,-0.01,27.68
34600954.0,0.28,0.03,9.21,-0.04,0.02,-0.01,27.68
34623954.0,0.3,-0.06,9.15,-0.04,0.03,-0.01,27.68
34646954.0,0.32,-0.0,9.22,-0.04,0.03,-0.01,27.64
34669954.0,0.33,0.03,9.16,-0.04,0.03,-0.01,27.73
34692954.0,0.37,0.0,9.21,-0.04,0.02,-0.01,27.64
34715954.0,0.34,0.0,9.09,-0.05,0.03,-0.01,27.64
34738954.0,0.33,0.0,9.25,-0.04,0.03,-0.01,27.73
34761954.0,0.25,-0.01,9.33,-0.04,0.03,-0.01,27.73
34784954.0,0.28,0.06,9.2,-0.04,0.03,-0.01,27.68
34807954.0,0.38,0.03,9.17,-0.04,0.02,-0.01,27.68
34830953.0,0.32,-0.02,9.27,-0.04,0.03,-0.01,27.78
34853954.0,0.34,-0.06,9.24,-0.05,0.03,-0.0,27.73
34876954.0,0.39,0.01,9.15,-0.05,0.03,-0.01,27.54
34899954.0,0.31,0.01,9.31,-0.04,0.03,-0.01,27.64
34922954.0,0.29,-0.01,9.23,-0.04,0.03,-0.01,27.64
34945954.0,0.34,0.05,9.23,-0.04,0.03,-0.01,27.68
34968954.0,0.33,0.0,9.23,-0.05,0.02,-0.01,27.68
34991953.0,0.36,-0.02,9.12,-0.04,0.03,-0.0,27.78
35014954.0,0.33,0.01,9.25,-0.05,0.03,-0.01,27.68
35037954.0,0.34,-0.05,9.18,-0.04,0.02,-0.01,27.64
35060954.0,0.34,0.0,9.2,-0.04,0.02,-0.01,27.73
35083954.0,0.29,0.0,9.21,-0.04,0.03,-0.01,27.73
35106954.0,0.35,-0.01,9.24,-0.04,0.03,-0.01,27.82
35129954.0,0.38,0.01,9.15,-0.05,0.03,-0.01,27.73
35152954.0,0.34,-0.03,9.28,-0.04,0.03,-0.01,27.59
35175954.0,0.31,-0.04,9.23,-0.04,0.02,-0.01,27.68
35198954.0,0.33,-0.02,9.19,-0.04,0.03,-0.01,27.68
35221954.0,0.33,-0.03,9.23,-0.04,0.03,-0.01,27.68
35244954.0,0.35,-0.01,9.19,-0.04,0.02,-0.01,27.64
35267954.0,0.28,0.03,9.24,-0.04,0.03,-0.01,27.64
35290954.0,0.33,0.05,9.22,-0.05,0.03,-0.01,27.64
35313954.0,0.35,-0.03,9.14,-0.05,0.03,-0.01,27.73
35336954.0,0.33,-0.05,9.37,-0.04,0.03,-0.01,27.68
35359953.0,0.35,-0.08,9.29,-0.04,0.03,-0.01,27.78
35382954.0,0.31,-0.01,9.27,-0.04,0.03,-0.01,27.68
35405954.0,0.35,-0.0,9.23,-0.05,0.03,-0.01,27.68
35428954.0,0.38,0.01,9.15,-0.04,0.03,-0.01,27.59
35451954.0,0.36,-0.02,9.15,-0.04,0.03,-0.01,27.64
35474954.0,0.31,-0.06,9.27,-0.04,0.03,-0.01,27.73
35497954.0,0.31,-0.02,9.22,-0.05,0.03,-0.01,27.64
35520954.0,0.38,-0.01,9.23,-0.04,0.03,-0.01,27.64
35543954.0,0.33,0.06,9.18,-0.04,0.03,-0.01,27.73
35566954.0,0.36,-0.0,9.22,-0.04,0.03,-0.01,27.73
35589954.0,0.36,0.07,9.24,-0.05,0.03,-0.01,27.59
35612954.0,0.3,0.02,9.22,-0.04,0.03,-0.01,27.68
35635954.0,0.36,0.0,9.18,-0.04,0.02,-0.01,27.68
35658954.0,0.31,-0.01,9.22,-0.04,0.03,-0.01,27.73
35681954.0,0.29,0.02,9.24,-0.04,0.03,-0.0,27.73
35704954.0,0.29,-0.0,9.22,-0.04,0.03,-0.01,27.64
35727954.0,0.29,0.01,9.21,-0.04,0.03,-0.01,27.73
35750953.0,0.39,0.0,9.34,-0.04,0.03,-0.01,27.78
35773954.0,0.29,0.03,9.21,-0.04,0.03,-0.01,27.68
35796954.0,0.34,-0.05,9.25,-0.04,0.03,-0.01,27.68
35819954.0,0.34,-0.01,9.3,-0.04,0.03,-0.01,27.68
35842954.0,0.28,-0.02,9.24,-0.04,0.03,-0.01,27.73
35865954.0,0.29,0.03,9.18,-0.04,0.02,-0.01,27.73
35888954.0,0.33,-0.08,9.2,-0.05,0.03,-0.01,27.64
35911954.0,0.33,-0.0,9.24,-0.04,0.03,-0.01,27.73
35934954.0,0.35,-0.01,9.25,-0.04,0.03,-0.01,27.73
35957954.0,0.29,-0.02,9.3,-0.04,0.03,-0.01,27.68
35980954.0,0.3,0.04,9.17,-0.04,0.03,-0.01,27.68
36003954.0,0.25,0.01,9.28,-0.04,0.03,-0.01,27.68
36026953.0,0.38,-0.02,9.18,-0.05,0.03,-0.01,27.78
36049954.0,0.31,0.02,9.1,-0.05,0.03,-0.01,27.64
36072954.0,0.32,0.05,9.21,-0.04,0.03,-0.01,27.73
36095954.0,0.3,-0.06,9.2,-0.04,0.03,-0.01,27.64
36118954.0,0.34,0.0,9.23,-0.04,0.03,-0.01,27.73
36141954.0,0.35,0.05,9.17,-0.05,0.03,-0.01,27.68
36164954.0,0.31,0.08,9.18,-0.04,0.03,-0.01,27.68
36187954.0,0.28,-0.04,9.29,-0.04,0.03,-0.01,27.68
36210953.0,0.36,0.02,9.16,-0.04,0.03,-0.01,27.78
36233954.0,0.3,0.04,9.24,-0.04,0.03,-0.01,27.68
36256954.0,0.35,0.05,9.14,-0.04,0.02,-0.01,27.73
36279954.0,0.28,0.04,9.31,-0.04,0.03,-0.01,27.64
36302954.0,0.28,-0.0,9.19,-0.05,0.03,-0.01,27.64
36325954.0,0.3,0.01,9.25,-0.04,0.03,-0.01,27.73
36348954.0,0.39,0.01,9.2,-0.04,0.03,-0.01,27.73
36371954.0,0.34,0.06,9.16,-0.04,0.02,-0.01,27.64
36394954.0,0.32,0.02,9.26,-0.04,0.03,-0.01,27.68
36417954.0,0.35,-0.03,9.28,-0.04,0.03,-0.01,27.68
36440954.0,0.31,0.0,9.31,-0.05,0.03,-0.01,27.64
36463954.0,0.29,-0.01,9.19,-0.05,0.02,-0.01,27.64
36486954.0,0.29,0.0,9.29,-0.05,0.03,-0.01,27.64
36509954.0,0.29,-0.01,9.23,-0.04,0.03,-0.01,27.64
36532954.0,0.34,0.02,9.34,-0.04,0.03,-0.01,27.64
36555953.0,0.3,0.05,9.24,-0.04,0.03,-0.01,27.78
36578954.0,0.38,0.02,9.19,-0.04,0.02,-0.01,27.68
36601954.0,0.36,-0.05,9.27,-0.04,0.02,-0.01,27.68
36624954.0,0.28,-0.01,9.21,-0.05,0.03,-0.01,27.68
36647954.0,0.3,-0.01,9.24,-0.04,0.03,-0.01,27.64
36670954.0,0.33,-0.03,9.17,-0.04,0.03,-0.01,27.73
36693954.0,0.27,0.02,9.33,-0.04,0.03,-0.01,27.73
36716954.0,0.27,0.03,9.16,-0.04,0.03,-0.01,27.64
36739954.0,0.29,0.01,9.22,-0.04,0.03,-0.01,27.68
36762954.0,0.28,0.08,9.2,-0.04,0.02,-0.01,27.68
36785954.0,0.37,0.05,9.28,-0.04,0.02,-0.01,27.68
36808954.0,0.32,-0.04,9.21,-0.04,0.03,-0.01,27.68
36831953.0,0.24,-0.01,9.18,-0.04,0.03,-0.01,27.78
36854954.0,0.28,0.05,9.34,-0.04,0.03,-0.01,27.64
36877954.0,0.36,-0.03,9.12,-0.05,0.02,-0.01,27.73
36900954.0,0.38,-0.02,9.25,-0.05,0.03,-0.01,27.73
36923954.0,0.32,0.0,9.23,-0.04,0.03,-0.01,27.73
36946954.0,0.27,-0.03,9.21,-0.04,0.03,-0.01,27.59
36969954.0,0.37,-0.03,9.18,-0.04,0.03,-0.01,27.59
36992953.0,0.25,0.04,9.24,-0.04,0.03,-0.01,27.78
37015954.0,0.35,0.06,9.17,-0.04,0.03,-0.01,27.68
37038953.0,0.3,0.05,9.18,-0.04,0.03,-0.01,27.78
37061954.0,0.39,-0.01,9.15,-0.05,0.03,-0.01,27.64
37084954.0,0.32,-0.02,9.17,-0.04,0.03,-0.01,27.73
37107954.0,0.29,-0.01,9.2,-0.04,0.03,-0.01,27.64
37130954.0,0.28,0.01,9.21,-0.04,0.03,-0.01,27.64
37153954.0,0.35,0.06,9.22,-0.05,0.03,-0.01,27.73
37176954.0,0.31,-0.05,9.26,-0.05,0.03,-0.01,27.73
37199954.0,0.31,0.09,9.22,-0.05,0.03,-0.01,27.68
37222953.0,0.31,-0.01,9.22,-0.04,0.03,-0.01,27.78
37245954.0,0.35,0.03,9.18,-0.04,0.03,-0.01,27.73
37268954.0,0.36,0.01,9.19,-0.04,0.03,-0.01,27.64
37291954.0,0.33,-0.0,9.26,-0.04,0.03,-0.01,27.64
37314954.0,0.29,0.03,9.17,-0.04,0.03,-0.0,27.73
37337954.0,0.35,-0.01,9.15,-0.04,0.03,-0.01,27.64
37360954.0,0.33,0.0,9.22,-0.04,0.03,-0.01,27.59
37383954.0,0.28,-0.07,9.17,-0.04,0.03,-0.01,27.59
37406954.0,0.35,-0.02,9.22,-0.04,0.03,-0.01,27.59
37429954.0,0.3,0.02,9.21,-0.04,0.03,-0.01,27.68
37452954.0,0.29,0.07,9.17,-0.05,0.03,-0.01,27.73
37475954.0,0.31,0.01,9.28,-0.04,0.03,-0.01,27.73
37498954.0,0.34,0.0,9.19,-0.04,0.03,-0.01,27.54
37521954.0,0.3,0.1,9.21,-0.04,0.03,-0.01,27.64
37544954.0,0.3,0.0,9.2,-0.04,0.03,-0.01,27.68
37567954.0,0.37,0.0,9.34,-0.05,0.03,-0.01,27.68
37590954.0,0.34,0.01,9.19,-0.04,0.03,-0.01,27.68
37613954.0,0.34,0.04,9.08,-0.04,0.03,-0.01,27.68
37636954.0,0.35,0.02,9.27,-0.04,0.03,-0.01,27.68
37659954.0,0.3,0.05,9.16,-0.04,0.03,-0.01,27.64
37682954.0,0.32,0.1,9.38,-0.04,0.03,-0.01,27.64
37705954.0,0.34,0.02,9.26,-0.04,0.03,-0.01,27.73
37728954.0,0.33,0.05,9.24,-0.04,0.03,-0.01,27.64
37751954.0,0.38,-0.0,9.21,-0.05,0.03,-0.01,27.68
37774954.0,0.28,0.01,9.25,-0.04,0.03,-0.01,27.68
37797953.0,0.26,0.02,9.16,-0.04,0.03,-0.01,27.78
37820953.0,0.28,0.0,9.24,-0.04,0.03,-0.01,27.78
37843954.0,0.31,0.01,9.26,-0.05,0.03,-0.01,27.73
37866954.0,0.3,0.03,9.22,-0.05,0.03,-0.01,27.73
37889954.0,0.36,0.06,9.14,-0.04,0.03,-0.01,27.64
37912954.0,0.38,0.09,9.26,-0.04,0.03,-0.01,27.73
37935954.0,0.36,-0.04,9.17,-0.04,0.03,-0.01,27.73
37958954.0,0.27,0.0,9.19,-0.04,0.03,-0.01,27.64
37981953.0,0.3,-0.02,9.21,-0.04,0.02,-0.01,27.78
38004953.0,0.34,-0.05,9.17,-0.05,0.03,-0.01,27.78
38027953.0,0.34,0.05,9.28,-0.04,0.03,-0.01,27.78
38050954.0,0.36,0.06,9.27,-0.05,0.03,-0.01,27.64
38073954.0,0.36,0.0,9.24,-0.04,0.03,-0.01,27.73
38096954.0,0.32,0.02,9.31,-0.05,0.02,-0.01,27.64
38119954.0,0.33,-0.01,9.11,-0.04,0.03,-0.01,27.82
38142954.0,0.36,0.03,9.17,-0.05,0.03,-0.01,27.68
38165954.0,0.33,-0.01,9.21,-0.04,0.03,-0.01,27.59
38188953.0,0.38,0.0,9.24,-0.04,0.03,-0.01,27.78
38211953.0,0.33,-0.01,9.21,-0.04,0.03,-0.01,27.78
38234953.0,0.23,0.08,9.17,-0.04,0.03,-0.01,27.78
38257954.0,0.29,0.08,9.2,-0.04,0.03,-0.01,27.73
38280954.0,0.35,0.01,9.19,-0.05,0.03,-0.01,27.73
38303954.0,0.31,0.04,9.17,-0.04,0.03,-0.01,27.64
38326954.0,0.33,0.0,9.19,-0.04,0.03,-0.01,27.73
38349954.0,0.32,-0.03,9.19,-0.05,0.02,-0.01,27.68
38372953.0,0.33,0.01,9.14,-0.04,0.03,-0.01,27.78
38395953.0,0.31,0.03,9.18,-0.04,0.03,-0.01,27.78
38418953.0,0.29,-0.04,9.28,-0.04,0.03,-0.01,27.78
38441954.0,0.38,0.03,9.22,-0.04,0.03,-0.01,27.59
38464954.0,0.41,0.02,9.2,-0.04,0.03,-0.01,27.64
38487954.0,0.35,0.07,9.31,-0.04,0.03,-0.01,27.64
38510954.0,0.28,-0.0,9.08,-0.04,0.03,-0.01,27.64
38533954.0,0.3,0.05,9.26,-0.05,0.02,-0.01,27.64
38556954.0,0.32,-0.03,9.17,-0.04,0.03,-0.01,27.68
38579954.0,0.33,0.03,9.2,-0.04,0.02,-0.01,27.68
38602954.0,0.28,-0.04,9.19,-0.05,0.03,-0.01,27.59
38625954.0,0.28,0.01,9.14,-0.05,0.03,-0.01,27.68
38648954.0,0.31,0.04,9.15,-0.04,0.03,-0.01,27.64
38671954.0,0.36,0.04,9.39,-0.04,0.03,-0.01,27.73
38694954.0,0.29,-0.04,9.14,-0.04,0.03,-0.01,27.64
38717954.0,0.29,0.02,9.13,-0.04,0.03,-0.01,27.73
38740954.0,0.33,-0.03,9.18,-0.04,0.03,-0.01,27.64
38763954.0,0.33,0.01,9.23,-0.04,0.03,-0.01,27.73
38786954.0,0.28,-0.01,9.22,-0.04,0.03,-0.01,27.68
38809954.0,0.32,-0.02,9.18,-0.04,0.03,-0.01,27.68
38832954.0,0.32,0.02,9.3,-0.05,0.03,-0.01,27.68
38855954.0,0.3,-0.01,9.2,-0.04,0.03,-0.01,27.64
38878954.0,0.35,0.07,9.29,-0.04,0.03,-0.01,27.73
38901954.0,0.27,0.04,9.2,-0.04,0.03,-0.01,27.73
38924954.0,0.31,0.06,9.24,-0.05,0.02,-0.01,27.73
38947953.0,0.33,-0.04,9.25,-0.04,0.03,-0.01,27.78
38970954.0,0.33,0.05,9.22,-0.04,0.03,-0.01,27.68
38993954.0,0.28,0.05,9.18,-0.04,0.03,-0.01,27.59
39016953.0,0.24,0.04,9.27,-0.05,0.03,-0.01,27.78
39039954.0,0.37,0.04,9.23,-0.05,0.03,-0.01,27.68
39062954.0,0.29,-0.02,9.2,-0.04,0.03,-0.01,27.64
39085954.0,0.34,0.01,9.2,-0.04,0.02,-0.01,27.64
39108954.0,0.34,-0.01,9.31,-0.04,0.03,-0.01,27.73
39131954.0,0.31,-0.05,9.12,-0.04,0.03,-0.01,27.64
39154954.0,0.26,0.02,9.13,-0.04,0.03,-0.01,27.68
39177954.0,0.33,0.04,9.32,-0.04,0.03,-0.01,27.68
39200954.0,0.34,0.01,9.25,-0.04,0.03,-0.01,27.68
39223954.0,0.35,0.03,9.31,-0.04,0.03,-0.01,27.68
39246954.0,0.33,0.06,9.25,-0.04,0.03,-0.01,27.64
39269954.0,0.35,0.05,9.15,-0.04,0.03,-0.01,27.73
39292954.0,0.3,0.05,9.27,-0.04,0.03,-0.01,27.73
39315954.0,0.34,-0.02,9.14,-0.04,0.03,-0.01,27.64
39338954.0,0.34,0.01,9.24,-0.04,0.03,-0.01,27.64
39361954.0,0.35,0.02,9.22,-0.04,0.03,-0.01,27.68
39384953.0,0.29,-0.05,9.27,-0.04,0.03,-0.01,27.78
39407954.0,0.32,-0.06,9.18,-0.04,0.03,-0.01,27.68
39430954.0,0.29,-0.0,9.24,-0.04,0.03,-0.01,27.68
39453954.0,0.33,-0.02,9.27,-0.04,0.03,-0.01,27.64
39476954.0,0.32,0.0,9.26,-0.04,0.03,-0.01,27.64
39499954.0,0.34,0.0,9.24,-0.04,0.03,-0.01,27.64
39522954.0,0.3,-0.06,9.18,-0.05,0.03,-0.01,27.73
39545954.0,0.28,0.04,9.23,-0.04,0.02,-0.01,27.64
39568954.0,0.34,0.0,9.37,-0.04,0.03,-0.01,27.73
39591954.0,0.34,0.05,9.32,-0.04,0.03,-0.01,27.68
39614954.0,0.31,0.03,9.3,-0.05,0.03,-0.01,27.68
39637954.0,0.35,0.01,9.35,-0.04,0.03,-0.01,27.68
39660954.0,0.34,0.03,9.24,-0.04,0.02,-0.01,27.73
39683954.0,0.33,0.06,9.17,-0.04,0.03,-0.01,27.73
39706954.0,0.34,0.01,9.18,-0.04,0.03,-0.01,27.73
39729954.0,0.37,0.03,9.14,-0.04,0.03,-0.01,27.64
39752954.0,0.34,-0.04,9.24,-0.04,0.03,-0.01,27.59
39775954.0,0.32,-0.02,9.14,-0.04,0.03,-0.01,27.68
39798954.0,0.29,-0.0,9.16,-0.04,0.03,-0.01,27.68
39821954.0,0.39,0.07,9.22,-0.04,0.03,-0.01,27.68
39844954.0,0.34,-0.0,9.15,-0.04,0.02,-0.01,27.68
39867954.0,0.3,-0.0,9.3,-0.05,0.03,-0.01,27.73
39890954.0,0.25,0.02,9.15,-0.04,0.03,-0.01,27.64
39913954.0,0.33,-0.05,9.31,-0.04,0.03,-0.01,27.64
39936954.0,0.34,-0.01,9.12,-0.04,0.03,-0.01,27.64
39959954.0,0.34,-0.05,9.23,-0.04,0.03,-0.01,27.68
39982954.0,0.31,0.02,9.26,-0.04,0.03,-0.01,27.68
40005953.0,0.37,0.01,9.27,-0.04,0.03,-0.01,27.78
40028953.0,0.37,0.02,9.24,-0.04,0.03,-0.0,27.78
40051954.0,0.32,0.03,9.3,-0.04,0.03,-0.01,27.73
40074954.0,0.29,-0.0,9.32,-0.04,0.02,-0.01,27.64
40097954.0,0.36,0.02,9.3,-0.04,0.03,-0.01,27.64
40120954.0,0.36,0.04,9.21,-0.04,0.03,-0.01,27.64
40143954.0,0.34,0.02,9.14,-0.04,0.02,-0.01,27.64
40166954.0,0.34,-0.03,9.25,-0.04,0.03,-0.01,27.68
40189953.0,0.33,0.0,9.22,-0.04,0.03,-0.01,27.78
40212954.0,0.3,0.06,9.24,-0.04,0.03,-0.01,27.68
40235954.0,0.3,0.04,9.21,-0.04,0.03,-0.01,27.68
40258954.0,0.29,0.01,9.3,-0.04,0.03,-0.01,27.73
40281954.0,0.33,0.04,9.22,-0.04,0.03,-0.01,27.64
40304954.0,0.33,0.03,9.14,-0.04,0.03,-0.01,27.73
40327954.0,0.3,0.01,9.25,-0.04,0.03,-0.01,27.64
40350954.0,0.35,-0.05,9.12,-0.04,0.03,-0.01,27.73
40373954.0,0.38,-0.1,9.23,-0.04,0.03,-0.01,27.64
40396954.0,0.28,0.0,9.11,-0.04,0.03,-0.01,27.68
40419954.0,0.33,0.0,9.29,-0.04,0.03,-0.01,27.59
40442954.0,0.28,-0.04,9.24,-0.04,0.03,-0.01,27.68
40465954.0,0.36,0.01,9.22,-0.04,0.02,-0.01,27.73
40488954.0,0.27,0.06,9.24,-0.04,0.03,-0.01,27.73
40511954.0,0.33,-0.0,9.27,-0.04,0.03,-0.0,27.73
40534954.0,0.3,0.02,9.27,-0.04,0.03,-0.01,27.73
40557954.0,0.28,-0.01,9.18,-0.04,0.03,-0.01,27.68
40580954.0,0.35,0.04,9.21,-0.04,0.03,-0.01,27.68
40603953.0,0.29,0.01,9.24,-0.04,0.03,-0.01,27.78
40626954.0,0.31,0.01,9.17,-0.05,0.03,-0.01,27.68
40649954.0,0.36,0.01,9.24,-0.05,0.03,-0.01,27.64
40672954.0,0.35,0.03,9.19,-0.04,0.03,-0.01,27.64
40695954.0,0.32,-0.01,9.32,-0.04,0.03,-0.01,27.64
40718954.0,0.37,0.04,9.26,-0.04,0.03,-0.01,27.73
40741954.0,0.33,-0.06,9.14,-0.04,0.03,-0.01,27.64
40764954.0,0.3,0.06,9.21,-0.04,0.03,-0.01,27.68
40787954.0,0.28,-0.03,9.16,-0.04,0.03,-0.01,27.68
40810954.0,0.32,0.03,9.21,-0.05,0.03,-0.01,27.68
40833954.0,0.32,0.06,9.26,-0.05,0.03,-0.01,27.68
40856954.0,0.37,0.0,9.31,-0.04,0.03,-0.01,27.73
40879954.0,0.31,-0.03,9.21,-0.04,0.03,-0.01,27.64
40902954.0,0.3,-0.09,9.27,-0.04,0.03,-0.01,27.73
40925954.0,0.34,-0.01,9.18,-0.05,0.03,-0.01,27.73
40948954.0,0.34,0.02,9.21,-0.04,0.03,-0.01,27.73
40971954.0,0.36,0.06,9.15,-0.04,0.03,-0.01,27.68
40994954.0,0.35,0.01,9.2,-0.05,0.03,-0.01,27.68
41017954.0,0.38,0.03,9.19,-0.05,0.03,-0.01,27.68
41040954.0,0.33,0.03,9.16,-0.04,0.03,-0.01,27.68
41063954.0,0.33,-0.03,9.23,-0.04,0.03,-0.01,27.73
41086954.0,0.33,-0.02,9.35,-0.04,0.03,-0.01,27.73
41109954.0,0.28,0.0,9.21,-0.04,0.03,-0.01,27.73
41132954.0,0.31,0.02,9.26,-0.04,0.03,-0.01,27.73
41155954.0,0.3,-0.08,9.2,-0.04,0.02,-0.01,27.73
41178954.0,0.31,0.02,9.19,-0.05,0.03,-0.01,27.64
41201954.0,0.41,-0.0,9.22,-0.04,0.03,-0.01,27.68
41224954.0,0.26,0.02,9.22,-0.04,0.03,-0.01,27.68
41247954.0,0.33,0.04,9.26,-0.04,0.02,-0.01,27.68
41270954.0,0.32,0.0,9.23,-0.04,0.03,-0.01,27.73
41293954.0,0.37,0.02,9.12,-0.04,0.03,-0.01,27.64
41316954.0,0.33,0.02,9.33,-0.04,0.03,-0.01,27.64
41339954.0,0.28,0.03,9.28,-0.04,0.03,-0.01,27.73
41362954.0,0.31,0.06,9.17,-0.04,0.03,-0.01,27.68
41385954.0,0.3,0.01,9.15,-0.05,0.03,-0.01,27.68
41408954.0,0.33,-0.07,9.22,-0.05,0.03,-0.01,27.68
41431954.0,0.31,-0.0,9.23,-0.04,0.03,-0.01,27.59
41454954.0,0.36,0.03,9.26,-0.05,0.03,-0.01,27.64
41477954.0,0.25,0.01,9.27,-0.04,0.03,-0.01,27.64
41500954.0,0.29,-0.01,9.29,-0.04,0.03,-0.01,27.54
41523954.0,0.3,0.04,9.13,-0.04,0.02,-0.01,27.73
41546954.0,0.28,0.04,9.15,-0.04,0.02,-0.01,27.73
41569954.0,0.31,0.02,9.32,-0.04,0.03,-0.01,27.68
41592953.0,0.3,0.01,9.3,-0.05,0.03,-0.01,27.78
41615954.0,0.35,0.07,9.24,-0.04,0.03,-0.01,27.68
41638954.0,0.29,-0.0,9.19,-0.04,0.03,-0.01,27.59
41661954.0,0.33,-0.02,9.16,-0.04,0.02,-0.01,27.73
41684954.0,0.28,0.02,9.22,-0.04,0.03,-0.01,27.73
41707954.0,0.29,0.05,9.16,-0.04,0.02,-0.01,27.64
41730954.0,0.38,0.0,9.24,-0.04,0.03,-0.01,27.64
41753954.0,0.28,0.03,9.24,-0.04,0.03,-0.01,27.68
41776954.0,0.27,0.06,9.16,-0.04,0.03,-0.01,27.68
41799954.0,0.29,-0.0,9.29,-0.04,0.03,-0.01,27.68
41822954.0,0.34,0.02,9.24,-0.04,0.03,-0.01,27.68
41845954.0,0.34,0.04,9.24,-0.04,0.03,-0.01,27.68
41868954.0,0.3,0.01,9.26,-0.04,0.03,-0.01,27.73
41891954.0,0.33,-0.02,9.22,-0.04,0.03,-0.01,27.73
41914954.0,0.34,0.01,9.19,-0.04,0.03,-0.01,27.64
41937954.0,0.32,-0.01,9.03,-0.04,0.03,-0.01,27.73
41960954.0,0.35,-0.05,9.25,-0.04,0.03,-0.01,27.73
41983954.0,0.31,-0.06,9.25,-0.04,0.03,-0.01,27.64
42006953.0,0.33,-0.0,9.22,-0.04,0.03,-0.01,27.78
42029954.0,0.31,-0.0,9.24,-0.04,0.03,-0.01,27.59
42052954.0,0.38,0.04,9.17,-0.04,0.03,-0.01,27.64
42075954.0,0.34,0.05,9.2,-0.04,0.03,-0.01,27.64
42098954.0,0.37,0.01,9.25,-0.04,0.03,-0.01,27.73
42121954.0,0.35,0.02,9.26,-0.04,0.03,-0.01,27.64
42144954.0,0.34,0.08,9.14,-0.04,0.03,-0.01,27.64
42167954.0,0.34,-0.04,9.25,-0.04,0.02,-0.01,27.68
42190953.0,0.32,-0.01,9.22,-0.04,0.03,-0.01,27.78
42213954.0,0.35,0.01,9.22,-0.04,0.03,-0.01,27.68
42236954.0,0.38,0.02,9.19,-0.04,0.03,-0.01,27.68
42259954.0,0.29,0.07,9.22,-0.04,0.03,-0.01,27.64
42282954.0,0.33,0.03,9.22,-0.04,0.03,-0.01,27.73
42305954.0,0.27,0.05,9.16,-0.05,0.03,-0.01,27.64
42328954.0,0.31,-0.02,9.3,-0.04,0.03,-0.01,27.73
42351954.0,0.36,0.02,9.3,-0.04,0.03,-0.01,27.73
42374954.0,0.31,-0.01,9.2,-0.05,0.03,-0.01,27.68
42397954.0,0.34,0.02,9.18,-0.05,0.03,-0.01,27.68
42420954.0,0.29,-0.0,9.28,-0.04,0.03,-0.01,27.68
42443953.0,0.32,-0.04,9.24,-0.05,0.03,-0.01,27.78
42466954.0,0.3,0.01,9.26,-0.04,0.03,-0.01,27.73
42489954.0,0.28,-0.01,9.18,-0.05,0.03,-0.01,27.64
42512954.0,0.33,-0.05,9.22,-0.04,0.03,-0.01,27.64
42535954.0,0.33,0.0,9.25,-0.04,0.02,-0.01,27.73
42558953.0,0.35,0.03,9.2,-0.04,0.03,-0.01,27.78
42581954.0,0.36,-0.04,9.26,-0.04,0.03,-0.01,27.68
42604954.0,0.33,-0.03,9.25,-0.04,0.03,-0.01,27.68
42627954.0,0.33,0.07,9.12,-0.05,0.03,-0.01,27.59
42650954.0,0.32,-0.02,9.26,-0.04,0.03,-0.01,27.68
42673954.0,0.32,-0.0,9.24,-0.05,0.03,-0.01,27.73
42696954.0,0.3,0.1,9.22,-0.04,0.03,-0.01,27.82
42719954.0,0.35,-0.01,9.24,-0.04,0.03,-0.01,27.73
42742954.0,0.34,0.03,9.29,-0.04,0.03,-0.01,27.54
42765954.0,0.28,-0.0,9.26,-0.04,0.03,-0.01,27.73
42788954.0,0.3,-0.0,9.13,-0.04,0.02,-0.01,27.64
42811954.0,0.29,-0.0,9.24,-0.04,0.03,-0.01,27.59
42834954.0,0.32,0.04,9.3,-0.04,0.02,-0.01,27.68
42857954.0,0.41,-0.02,9.17,-0.05,0.03,-0.01,27.64
42880954.0,0.34,0.03,9.24,-0.05,0.03,-0.01,27.73
42903954.0,0.33,0.04,9.22,-0.04,0.03,-0.01,27.73
42926954.0,0.32,-0.03,9.19,-0.04,0.03,-0.01,27.64
42949954.0,0.29,0.02,9.21,-0.05,0.03,-0.01,27.64
42972953.0,0.35,0.02,9.22,-0.05,0.03,-0.01,27.78
42995953.0,0.34,0.02,9.2,-0.04,0.03,-0.01,27.78
43018954.0,0.33,0.06,9.18,-0.04,0.03,-0.01,27.68
43041954.0,0.31,-0.01,9.23,-0.04,0.03,-0.01,27.59
43064954.0,0.28,-0.0,9.25,-0.04,0.03,-0.01,27.64
43087954.0,0.31,-0.05,9.2,-0.04,0.03,-0.01,27.64
43110954.0,0.35,0.02,9.22,-0.04,0.03,-0.01,27.64
43133954.0,0.38,0.02,9.24,-0.04,0.03,-0.01,27.64
43156953.0,0.31,-0.01,9.22,-0.04,0.03,-0.01,27.78
43179954.0,0.34,0.0,9.32,-0.04,0.03,-0.01,27.68
43202954.0,0.33,0.05,9.21,-0.04,0.02,-0.01,27.68
43225954.0,0.34,0.06,9.29,-0.05,0.03,-0.01,27.68
43248954.0,0.26,0.0,9.21,-0.04,0.03,-0.01,27.59
43271954.0,0.28,-0.04,9.25,-0.04,0.02,-0.01,27.73
43294954.0,0.33,0.02,9.19,-0.04,0.03,-0.01,27.73
43317954.0,0.34,0.01,9.19,-0.04,0.03,-0.01,27.73
43340954.0,0.34,0.02,9.22,-0.04,0.02,-0.01,27.73
43363954.0,0.32,-0.0,9.21,-0.04,0.03,-0.01,27.68
43386953.0,0.37,-0.01,9.25,-0.04,0.03,-0.01,27.78
43409954.0,0.29,-0.05,9.23,-0.04,0.03,-0.01,27.59
43432954.0,0.32,0.03,9.19,-0.04,0.03,-0.01,27.68
43455954.0,0.34,-0.02,9.26,-0.04,0.03,-0.01,27.64
43478954.0,0.36,0.0,9.25,-0.04,0.03,-0.01,27.73
43501954.0,0.28,0.03,9.27,-0.04,0.03,-0.01,27.73
43524954.0,0.32,0.0,9.21,-0.04,0.02,-0.01,27.64
43547954.0,0.3,-0.01,9.2,-0.04,0.03,-0.01,27.64
43570954.0,0.35,0.01,9.15,-0.04,0.03,-0.01,27.64
43593954.0,0.32,0.01,9.2,-0.04,0.02,-0.01,27.68
43616954.0,0.32,0.01,9.13,-0.04,0.03,-0.01,27.68
43639954.0,0.32,-0.0,9.19,-0.04,0.03,-0.01,27.68
43662954.0,0.36,0.02,9.22,-0.05,0.03,-0.01,27.73
43685954.0,0.37,0.01,9.23,-0.04,0.02,-0.01,27.64
43708954.0,0.31,-0.04,9.17,-0.04,0.03,-0.01,27.64
43731954.0,0.31,0.03,9.15,-0.04,0.03,-0.01,27.64
43754954.0,0.31,0.04,9.2,-0.04,0.03,-0.01,27.73
43777954.0,0.3,0.01,9.14,-0.04,0.03,-0.01,27.59
43800954.0,0.35,0.04,9.15,-0.04,0.03,-0.01,27.59
43823954.0,0.32,0.05,9.2,-0.04,0.03,-0.01,27.59
43846954.0,0.3,-0.01,9.31,-0.04,0.03,-0.01,27.68
43869954.0,0.34,0.0,9.18,-0.04,0.03,-0.01,27.64
43892954.0,0.34,-0.01,9.26,-0.04,0.03,-0.01,27.73
43915954.0,0.36,0.02,9.16,-0.05,0.03,-0.01,27.54
43938954.0,0.37,0.05,9.22,-0.04,0.03,-0.01,27.64
43961954.0,0.31,0.0,9.19,-0.04,0.03,-0.01,27.68
43984954.0,0.32,0.02,9.19,-0.04,0.03,-0.01,27.59
44007954.0,0.32,0.02,9.21,-0.04,0.03,-0.01,27.59
44030954.0,0.33,0.06,9.23,-0.04,0.03,-0.01,27.68
44053954.0,0.35,-0.03,9.08,-0.04,0.03,-0.01,27.68
44076954.0,0.32,0.02,9.2,-0.04,0.03,-0.01,27.73
44099954.0,0.3,0.03,9.14,-0.05,0.03,-0.01,27.64
44122954.0,0.28,0.01,9.22,-0.04,0.03,-0.01,27.64
44145954.0,0.3,-0.04,9.19,-0.05,0.03,-0.01,27.73
44168953.0,0.33,0.06,9.15,-0.05,0.03,-0.01,27.78
44191954.0,0.4,-0.05,9.18,-0.05,0.03,-0.01,27.68
44214953.0,0.27,0.06,9.24,-0.04,0.03,-0.01,27.78
44237954.0,0.31,0.02,9.2,-0.04,0.03,-0.01,27.68
44260954.0,0.34,-0.01,9.32,-0.05,0.03,-0.0,27.82
44283954.0,0.37,0.05,9.19,-0.05,0.03,-0.01,27.73
44306954.0,0.3,0.02,9.23,-0.04,0.03,-0.01,27.73
44329954.0,0.31,0.0,9.27,-0.04,0.03,-0.01,27.64
44352954.0,0.37,0.01,9.17,-0.04,0.03,-0.01,27.64
44375954.0,0.29,0.0,9.12,-0.05,0.03,-0.01,27.73
44398954.0,0.33,-0.03,9.24,-0.04,0.03,-0.01,27.59
44421954.0,0.41,0.0,9.17,-0.04,0.03,-0.01,27.68
44444954.0,0.33,-0.03,9.26,-0.04,0.03,-0.01,27.68
44467954.0,0.36,0.02,9.23,-0.04,0.03,-0.01,27.64
44490954.0,0.32,-0.04,9.25,-0.04,0.02,-0.0,27.64
44513954.0,0.36,0.04,9.21,-0.04,0.03,-0.01,27.64
44536954.0,0.33,-0.0,9.2,-0.05,0.03,-0.01,27.64
44559954.0,0.31,0.02,9.23,-0.04,0.03,-0.01,27.68
44582954.0,0.27,-0.02,9.28,-0.04,0.03,-0.01,27.59
44605954.0,0.29,-0.0,9.21,-0.05,0.03,-0.01,27.68
44628954.0,0.3,0.01,9.25,-0.04,0.03,-0.01,27.68
44651954.0,0.33,-0.06,9.12,-0.04,0.03,-0.01,27.68
44674954.0,0.33,0.0,9.27,-0.04,0.03,-0.01,27.73
44697954.0,0.32,0.04,9.19,-0.04,0.02,-0.01,27.73
44720954.0,0.27,0.02,9.23,-0.05,0.03,-0.01,27.73
44743954.0,0.29,-0.0,9.19,-0.05,0.03,-0.01,27.73
44766954.0,0.32,-0.0,9.19,-0.04,0.03,-0.0,27.68
44789954.0,0.36,-0.0,9.17,-0.04,0.02,-0.01,27.68
44812954.0,0.34,0.0,9.24,-0.04,0.03,-0.01,27.68
44835954.0,0.29,0.03,9.23,-0.04,0.03,-0.01,27.68
44858954.0,0.22,0.0,9.19,-0.04,0.03,-0.01,27.64
44881954.0,0.34,0.0,9.21,-0.04,0.03,-0.01,27.73
44904954.0,0.34,0.01,9.2,-0.04,0.03,-0.01,27.73
44927954.0,0.36,0.06,9.16,-0.04,0.03,-0.01,27.64
44950954.0,0.32,0.08,9.15,-0.04,0.03,-0.01,27.73
44973954.0,0.31,-0.02,9.25,-0.04,0.03,-0.01,27.68
44996954.0,0.33,-0.05,9.12,-0.04,0.03,-0.01,27.68
45019954.0,0.35,-0.0,9.2,-0.05,0.03,-0.01,27.68
45042953.0,0.35,0.0,9.22,-0.04,0.03,-0.01,27.78
45065954.0,0.32,0.05,9.21,-0.05,0.03,-0.01,27.73
45088954.0,0.3,-0.03,9.13,-0.04,0.03,-0.01,27.64
45111954.0,0.37,-0.05,9.36,-0.04,0.02,-0.01,27.64
45134954.0,0.43,-0.06,9.2,-0.04,0.03,-0.01,27.64
45157954.0,0.34,-0.0,9.24,-0.04,0.03,-0.01,27.73
45180954.0,0.33,-0.02,9.12,-0.04,0.03,-0.01,27.73
45203953.0,0.32,0.01,9.21,-0.05,0.03,-0.01,27.78
45226954.0,0.31,0.01,9.29,-0.04,0.03,-0.01,27.68
45249954.0,0.3,0.05,9.2,-0.05,0.03,-0.01,27.68
45272954.0,0.37,0.03,9.2,-0.04,0.03,-0.01,27.64
45295954.0,0.34,-0.02,9.19,-0.04,0.03,-0.01,27.73
45318954.0,0.37,0.02,9.19,-0.04,0.03,-0.01,27.64
45341954.0,0.31,0.0,9.26,-0.04,0.03,-0.01,27.64
45364954.0,0.37,-0.03,9.23,-0.04,0.03,-0.01,27.68
45387954.0,0.34,0.03,9.26,-0.04,0.03,-0.01,27.68
45410953.0,0.31,0.05,9.19,-0.05,0.03,-0.01,27.78
45433953.0,0.38,-0.03,9.22,-0.04,0.03,-0.01,27.78
45456954.0,0.29,-0.03,9.28,-0.04,0.03,-0.01,27.68
45479954.0,0.32,-0.08,9.18,-0.04,0.03,-0.01,27.73
45502954.0,0.34,0.0,9.22,-0.04,0.03,-0.01,27.73
45525954.0,0.33,0.02,9.33,-0.04,0.02,-0.01,27.73
45548954.0,0.25,0.01,9.17,-0.04,0.03,-0.01,27.64
45571954.0,0.35,0.05,9.15,-0.05,0.03,-0.01,27.68
45594954.0,0.35,-0.02,9.23,-0.04,0.03,-0.01,27.59
45617953.0,0.3,-0.0,9.15,-0.04,0.03,-0.01,27.78
45640954.0,0.33,-0.04,9.24,-0.04,0.03,-0.01,27.68
45663954.0,0.35,-0.01,9.26,-0.05,0.02,-0.01,27.64
45686954.0,0.31,0.01,9.24,-0.05,0.03,-0.01,27.64
45709954.0,0.33,0.05,9.22,-0.05,0.03,-0.01,27.73
45732954.0,0.32,-0.06,9.24,-0.04,0.03,-0.01,27.73
45755954.0,0.37,0.02,9.27,-0.04,0.03,-0.01,27.64
45778954.0,0.28,0.01,9.14,-0.04,0.03,-0.01,27.59
45801954.0,0.35,0.01,9.2,-0.04,0.03,-0.01,27.68
45824954.0,0.38,0.01,9.22,-0.04,0.02,-0.01,27.68
45847954.0,0.31,-0.04,9.12,-0.04,0.03,-0.01,27.59
45870954.0,0.27,-0.02,9.26,-0.04,0.02,-0.01,27.64
45893954.0,0.3,0.03,9.18,-0.04,0.02,-0.01,27.73
45916954.0,0.25,-0.02,9.22,-0.04,0.03,-0.01,27.73
45939954.0,0.32,0.01,9.24,-0.04,0.02,-0.01,27.73
45962954.0,0.32,-0.01,9.24,-0.04,0.03,-0.01,27.64
45985954.0,0.34,0.05,9.22,-0.04,0.03,-0.01,27.73
46008954.0,0.27,0.04,9.17,-0.05,0.03,-0.01,27.68
46031953.0,0.37,0.01,9.19,-0.05,0.03,-0.01,27.78
46054953.0,0.34,0.04,9.21,-0.04,0.03,-0.01,27.78
46077954.0,0.37,-0.0,9.24,-0.05,0.03,-0.01,27.73
46100954.0,0.33,0.05,9.32,-0.04,0.03,-0.01,27.73
46123954.0,0.3,-0.02,9.25,-0.04,0.03,-0.01,27.64
46146954.0,0.35,-0.04,9.23,-0.04,0.03,-0.01,27.73
46169954.0,0.31,0.03,9.26,-0.04,0.03,-0.01,27.68
46192953.0,0.31,0.0,9.17,-0.04,0.03,-0.01,27.78
46215953.0,0.34,-0.01,9.18,-0.05,0.03,-0.01,27.78
46238954.0,0.34,0.02,9.21,-0.04,0.02,-0.01,27.68
46261954.0,0.29,-0.03,9.23,-0.04,0.02,-0.01,27.64
46284954.0,0.36,0.01,9.32,-0.05,0.03,-0.01,27.64
46307954.0,0.27,-0.02,9.17,-0.04,0.03,-0.01,27.64
46330954.0,0.3,0.0,9.33,-0.04,0.03,-0.01,27.73
46353954.0,0.28,0.02,9.19,-0.05,0.03,-0.01,27.73
46376953.0,0.36,0.07,9.21,-0.04,0.03,-0.01,27.78
46399954.0,0.33,-0.04,9.26,-0.04,0.03,-0.01,27.68
46422954.0,0.3,0.03,9.21,-0.04,0.03,-0.01,27.68
46445954.0,0.3,-0.05,9.23,-0.04,0.03,-0.01,27.59
46468954.0,0.28,0.03,9.18,-0.05,0.03,-0.01,27.73
46491954.0,0.25,0.05,9.18,-0.04,0.03,-0.01,27.64
46514954.0,0.33,-0.02,9.14,-0.04,0.02,-0.01,27.73
46537954.0,0.32,0.01,9.19,-0.05,0.03,-0.01,27.73
46560954.0,0.3,-0.06,9.31,-0.05,0.03,-0.01,27.73
46583954.0,0.33,-0.01,9.27,-0.04,0.03,-0.01,27.68
46606954.0,0.28,0.03,9.21,-0.04,0.03,-0.01,27.68
46629953.0,0.3,-0.02,9.19,-0.04,0.03,-0.01,27.78
46652954.0,0.36,0.02,9.21,-0.04,0.03,-0.01,27.68
46675954.0,0.32,0.05,9.22,-0.04,0.03,-0.01,27.73
46698954.0,0.32,0.0,9.3,-0.04,0.03,-0.01,27.73
46721954.0,0.33,-0.04,9.15,-0.04,0.03,-0.01,27.73
46744954.0,0.32,0.08,9.21,-0.04,0.03,-0.01,27.73
46767954.0,0.33,-0.06,9.25,-0.04,0.03,-0.01,27.73
46790954.0,0.37,-0.08,9.18,-0.04,0.03,-0.01,27.73
46813954.0,0.41,0.0,9.2,-0.05,0.03,-0.01,27.68
46836954.0,0.29,0.06,9.16,-0.04,0.03,-0.01,27.68
46859954.0,0.31,0.04,9.15,-0.04,0.03,-0.01,27.68
46882954.0,0.35,-0.01,9.16,-0.04,0.03,-0.01,27.73
46905954.0,0.33,0.06,9.23,-0.04,0.02,-0.01,27.73
46928954.0,0.32,-0.05,9.15,-0.04,0.03,-0.01,27.73
46951954.0,0.28,0.0,9.23,-0.04,0.03,-0.01,27.64
46974954.0,0.23,0.05,9.16,-0.04,0.03,-0.01,27.68
46997954.0,0.35,0.01,9.19,-0.04,0.03,-0.01,27.68
47020954.0,0.31,0.0,9.16,-0.04,0.03,-0.01,27.68
47043954.0,0.34,0.07,9.17,-0.04,0.03,-0.01,27.68
47066954.0,0.34,0.02,9.18,-0.05,0.03,-0.01,27.73
47089954.0,0.29,0.06,9.31,-0.04,0.03,-0.01,27.64
47112954.0,0.33,-0.02,9.17,-0.04,0.03,-0.01,27.64
47135954.0,0.33,0.01,9.24,-0.04,0.03,-0.01,27.73
47158954.0,0.33,-0.03,9.29,-0.04,0.03,-0.01,27.64
47181953.0,0.31,0.0,9.27,-0.04,0.02,-0.01,27.78
47204953.0,0.38,-0.02,9.25,-0.04,0.03,-0.01,27.78
47227953.0,0.3,0.0,9.15,-0.04,0.03,-0.01,27.78
47250954.0,0.28,0.01,9.17,-0.04,0.03,-0.01,27.68
47273954.0,0.34,0.03,9.28,-0.04,0.03,-0.01,27.73
47296954.0,0.32,-0.01,9.16,-0.04,0.03,-0.01,27.82
47319954.0,0.32,-0.0,9.13,-0.04,0.03,-0.01,27.73
47342954.0,0.38,0.04,9.22,-0.04,0.03,-0.01,27.73
47365953.0,0.34,0.0,9.31,-0.04,0.02,-0.01,27.78
47388954.0,0.3,0.01,9.23,-0.04,0.03,-0.01,27.59
47411954.0,0.33,0.0,9.27,-0.04,0.03,-0.01,27.68
47434954.0,0.29,0.0,9.07,-0.04,0.03,-0.01,27.68
47457954.0,0.38,0.02,9.35,-0.04,0.03,-0.01,27.68
47480954.0,0.36,0.04,9.2,-0.04,0.03,-0.01,27.73
47503954.0,0.3,-0.01,9.21,-0.04,0.03,-0.01,27.64
47526954.0,0.3,0.07,9.12,-0.04,0.03,-0.01,27.73
47549954.0,0.24,0.03,9.22,-0.04,0.03,-0.01,27.73
47572954.0,0.36,0.04,9.2,-0.04,0.03,-0.01,27.73
47595954.0,0.4,0.02,9.29,-0.04,0.03,-0.01,27.64
47618954.0,0.28,0.03,9.31,-0.04,0.03,-0.01,27.59
47641954.0,0.32,0.03,9.19,-0.05,0.03,-0.01,27.68
47664954.0,0.34,-0.02,9.23,-0.04,0.03,-0.01,27.73
47687954.0,0.35,0.02,9.25,-0.04,0.03,-0.01,27.73
47710954.0,0.31,0.02,9.24,-0.04,0.03,-0.01,27.73
47733954.0,0.35,0.0,9.22,-0.04,0.03,-0.01,27.73
47756954.0,0.3,-0.02,9.15,-0.04,0.02,-0.01,27.73
47779954.0,0.31,0.02,9.27,-0.05,0.03,-0.01,27.68
47802954.0,0.35,0.02,9.17,-0.04,0.03,-0.01,27.68
47825954.0,0.34,0.06,9.29,-0.04,0.02,-0.01,27.68
47848954.0,0.28,0.01,9.23,-0.04,0.03,-0.01,27.68
